VULCAN
alpha beta intensity
Single peak fit using lmfit routine (P-V profile) at 2022-07-30 19:21:49.170374
5.55713 176.45997 3.20138 0.07348
0.00000 90.00000 3.94679 0.07630
5.55713 3.54003 2.73708 0.06220
89.31892 97.05324 1.78003 0.05906
90.00000 -90.00000 1.79945 0.06181
89.31892 82.94676 1.83169 0.05428
5.55713 -153.54175 3.14356 0.07555
0.00000 119.99828 3.66303 0.08060
5.55713 33.53831 3.00539 0.06914
89.31892 127.05152 1.14705 0.04843
90.00000 -60.00172 1.25893 0.05238
89.31892 112.94504 1.66208 0.05061
5.55713 -123.54090 3.76820 0.08149
0.00000 149.99913 3.63760 0.07769
5.55713 63.53916 4.00126 0.07778
89.31892 157.05237 0.21121 0.02688
90.00000 -30.00087 0.30177 0.03122
89.31892 142.94589 0.64755 0.03514
5.55713 -93.54134 4.31767 0.08858
0.00000 179.99869 3.94296 0.07684
5.55713 93.53873 4.32287 0.07904
89.31892 -172.94807 0.27847 0.02936
90.00000 -0.00131 0.23237 0.02698
89.31892 172.94546 0.29024 0.02604
5.55713 -63.54306 3.96764 0.08708
0.00000 -150.00303 3.53438 0.07332
5.55713 123.53700 3.42078 0.07354
89.31892 -142.94979 0.84383 0.04341
90.00000 29.99697 0.45707 0.03517
89.31892 -157.05627 0.26447 0.02523
5.55713 -33.54092 3.24858 0.07375
0.00000 -120.00089 3.62900 0.07557
5.55713 153.53914 2.82276 0.06418
89.31892 -112.94765 1.83225 0.06173
90.00000 59.99911 1.37417 0.05297
89.31892 -127.05413 1.26405 0.04619
5.55713 -3.54136 3.01751 0.07020
0.00000 -90.00133 3.86476 0.07635
5.55713 -176.46129 2.98699 0.06792
89.31892 -82.94809 1.93382 0.06309
90.00000 89.99867 1.81907 0.06249
89.31892 -97.05456 1.96221 0.05474
5.55713 26.45692 2.95031 0.07391
0.00000 -60.00305 3.59610 0.07451
5.55713 -146.46302 3.40048 0.07265
89.31892 -52.94981 1.29569 0.05276
90.00000 119.99695 1.37520 0.05354
89.31892 -67.05629 1.86453 0.05425
5.55713 56.45906 3.44250 0.07802
0.00000 -30.00091 3.66853 0.07471
5.55713 -116.46088 4.10208 0.08083
89.31892 -22.94767 0.24779 0.02992
90.00000 149.99909 0.35734 0.03258
89.31892 -37.05415 0.74470 0.03638
5.55713 86.45862 4.32576 0.08441
0.00000 -0.00135 3.99665 0.07554
5.55713 -86.46131 4.42837 0.08386
89.31892 7.05189 0.25970 0.03004
90.00000 179.99865 0.29843 0.03120
89.31892 -7.05458 0.26347 0.02497
5.55713 116.45690 3.93021 0.08057
0.00000 29.99693 3.65170 0.07552
5.55713 -56.46304 3.56302 0.07509
89.31892 37.05017 0.82233 0.04339
90.00000 -150.00307 0.44766 0.03404
89.31892 22.94369 0.23405 0.02599
5.55713 146.45904 3.24836 0.07366
0.00000 59.99907 3.81945 0.07992
5.55713 -26.46090 2.85995 0.06601
89.31892 67.05231 1.71884 0.05881
90.00000 -120.00093 1.33762 0.05281
89.31892 52.94583 1.09283 0.04349
6.60131 -177.30280 2.86185 0.06789
3.92476 -120.00093 4.04843 0.07887
6.60131 -62.69906 3.55618 0.07237
81.90616 67.08360 1.76857 0.06065
82.47848 59.99907 1.38900 0.05343
81.90616 52.91454 1.31896 0.04614
6.60131 152.69764 2.97366 0.07237
3.92476 -150.00050 3.56435 0.07453
6.60131 -92.69863 4.37357 0.08453
81.90616 37.08404 0.90510 0.04296
82.47848 29.99950 0.56452 0.03809
81.90616 22.91497 0.37526 0.02973
6.60131 122.69807 3.92172 0.07847
3.92476 179.99994 3.50132 0.06770
6.60131 -122.69819 4.05591 0.07919
81.90616 7.08447 0.27474 0.03025
82.47848 -0.00006 0.37044 0.03364
81.90616 -7.08459 0.29250 0.02787
6.60131 92.69851 3.91916 0.08365
3.92476 150.00038 3.38105 0.07297
6.60131 -152.69776 3.22580 0.06821
81.90616 -22.91509 0.30776 0.03268
82.47848 -29.99962 0.40509 0.03554
81.90616 -37.08416 0.80641 0.03933
6.60131 62.69766 3.65766 0.07832
3.92476 119.99952 3.62916 0.07638
6.60131 177.30139 2.65745 0.06102
81.90616 -52.91594 1.30111 0.05348
82.47848 -60.00048 1.48307 0.05863
81.90616 -67.08501 1.92210 0.05467
6.60131 32.69809 3.14521 0.07431
3.92476 89.99996 3.93305 0.07984
6.60131 147.30183 2.83253 0.06566
81.90616 -82.91551 2.01921 0.06525
82.47848 -90.00004 1.97627 0.06815
81.90616 -97.08457 1.97628 0.05648
6.60131 2.69724 2.51676 0.06469
3.92476 59.99911 3.69871 0.07456
6.60131 117.30098 3.52896 0.07495
81.90616 -112.91636 1.93702 0.06054
82.47848 -120.00089 1.39830 0.05567
81.90616 -127.08542 1.28426 0.04681
6.60131 -27.30232 3.11472 0.07316
3.92476 29.99954 3.32995 0.07064
6.60131 87.30141 4.17397 0.08148
81.90616 -142.91592 0.95385 0.04485
82.47848 -150.00046 0.54561 0.03729
81.90616 -157.08499 0.38209 0.03066
6.60131 -57.30189 3.95245 0.08151
3.92476 -0.00002 3.56557 0.07150
6.60131 57.30185 4.05009 0.07670
81.90616 -172.91549 0.31259 0.03138
82.47848 179.99998 0.25593 0.02960
81.90616 172.91545 0.31395 0.02744
6.60131 -87.30145 4.13139 0.08763
3.92476 -29.99958 3.23252 0.06823
6.60131 27.30228 3.00026 0.06677
81.90616 157.08495 0.35494 0.03279
82.47848 150.00042 0.44246 0.03578
81.90616 142.91588 0.81487 0.03806
6.60131 -117.30230 3.91827 0.08261
3.92476 -60.00044 3.63100 0.07759
6.60131 -2.69857 2.38809 0.05888
81.90616 127.08410 1.25007 0.04777
82.47848 119.99956 1.30904 0.05289
81.90616 112.91503 1.79232 0.05218
6.60131 -147.30187 3.19433 0.07474
3.92476 -90.00000 4.14623 0.08198
6.60131 -32.69813 2.73446 0.06310
81.90616 97.08453 2.02443 0.06478
82.47848 90.00000 1.93897 0.06486
81.90616 82.91547 1.85553 0.05479
9.34588 -126.69781 3.45418 0.07759
7.86923 -90.00000 4.37274 0.08150
9.34588 -53.30219 2.84907 0.06630
75.04809 97.17037 2.05895 0.06425
75.52700 90.00000 2.03133 0.06494
75.04809 82.82963 2.09713 0.05913
9.34588 -96.69953 4.31330 0.08465
7.86923 -60.00172 3.45287 0.07120
9.34588 -23.30391 1.66697 0.05150
75.04809 127.16864 1.38283 0.05408
75.52700 119.99828 1.58581 0.05734
75.04809 112.82791 1.70082 0.05095
9.34588 -66.69868 3.69371 0.08231
7.86923 -30.00087 2.46354 0.05939
9.34588 6.69694 1.75521 0.05280
75.04809 157.16950 0.58841 0.03703
75.52700 149.99913 0.74598 0.04256
75.04809 142.82876 1.14136 0.04404
9.34588 -36.69912 2.68310 0.06800
7.86923 -0.00131 2.25157 0.05764
9.34588 36.69651 2.93264 0.06505
75.04809 -172.83094 0.51537 0.03393
75.52700 179.99869 0.46491 0.03409
75.04809 172.82833 0.58733 0.03281
9.34588 -6.70212 1.79676 0.05728
7.86923 29.99569 2.77782 0.06147
9.34588 66.69350 3.92167 0.07674
75.04809 -142.83395 1.10364 0.04735
75.52700 -150.00431 0.74906 0.04295
75.04809 -157.17468 0.65562 0.03547
9.34588 23.30130 1.96960 0.05722
7.86923 59.99911 3.73322 0.07412
9.34588 96.69692 4.12890 0.08317
75.04809 -112.83052 1.76722 0.06028
75.52700 -120.00089 1.60019 0.05933
75.04809 -127.17126 1.46412 0.04797
9.34588 53.29700 3.33870 0.07574
7.86923 89.99482 4.30351 0.08204
9.34588 126.69263 2.86869 0.06695
75.04809 -82.83482 2.18219 0.06740
75.52700 -90.00518 2.11406 0.06731
75.04809 -97.17555 2.08925 0.06061
9.34588 83.29914 4.03145 0.08392
7.86923 119.99695 3.46823 0.07180
9.34588 156.69477 1.80984 0.05398
75.04809 -52.83268 1.45799 0.05488
75.52700 -60.00305 1.62645 0.05827
75.04809 -67.17341 1.97214 0.05501
9.34588 113.30128 3.77819 0.08321
7.86923 149.99909 2.49119 0.05964
9.34588 -173.30310 1.90133 0.05386
75.04809 -22.83054 0.55888 0.03870
75.52700 -30.00091 0.66435 0.04112
75.04809 -37.17128 1.04022 0.04192
9.34588 143.30084 2.74987 0.06684
7.86923 179.99865 2.42721 0.05760
9.34588 -143.30353 2.88938 0.06706
75.04809 7.16902 0.52969 0.03603
75.52700 -0.00135 0.50096 0.03581
75.04809 -7.17171 0.55705 0.03252
9.34588 173.29912 1.98504 0.05990
7.86923 -150.00307 2.99158 0.06304
9.34588 -113.30525 4.08886 0.08090
75.04809 37.16730 1.10345 0.04957
75.52700 29.99693 0.82606 0.04223
75.04809 22.82657 0.75629 0.03637
9.34588 -156.69874 2.18914 0.06026
7.86923 -120.00093 3.97305 0.07803
9.34588 -83.30312 4.10366 0.08313
75.04809 67.16944 1.66591 0.05761
75.52700 59.99907 1.52207 0.05443
75.04809 52.82870 1.45966 0.04704
12.76303 -146.20908 1.62984 0.05673
11.84553 -120.00093 3.45256 0.07207
12.76303 -93.79278 3.99537 0.08040
68.66734 67.31318 1.65902 0.05769
69.06442 59.99907 1.61148 0.05890
68.66734 52.68496 1.76024 0.05120
12.76303 -176.20864 0.92628 0.04199
11.84553 -150.00050 1.90059 0.05099
12.76303 -123.79235 3.20920 0.07088
68.66734 37.31362 1.60550 0.05624
69.06442 29.99950 1.40482 0.05387
68.66734 22.68539 1.36158 0.04740
12.76303 153.79179 1.34472 0.04874
11.84553 179.99994 1.17698 0.04134
12.76303 -153.79191 1.53590 0.05094
68.66734 7.31405 1.16717 0.04755
69.06442 -0.00006 1.02668 0.04809
68.66734 -7.31417 1.12951 0.04345
12.76303 123.79223 2.93630 0.06940
11.84553 150.00038 1.56510 0.04624
12.76303 176.20852 0.78434 0.03644
68.66734 -22.68551 1.11879 0.04949
69.06442 -29.99962 1.24419 0.05139
68.66734 -37.31374 1.61198 0.05204
12.76303 93.79138 4.05533 0.08885
11.84553 119.99952 3.06908 0.06433
12.76303 146.20767 1.19820 0.04382
68.66734 -52.68636 1.75815 0.06118
69.06442 -60.00048 1.80327 0.06200
68.66734 -67.31459 2.10128 0.05830
12.76303 63.79824 3.23363 0.07482
11.84553 90.00639 4.31999 0.08037
12.76303 116.21454 2.78677 0.06286
68.66734 -82.67950 2.12533 0.06814
69.06442 -89.99361 2.25351 0.06803
68.66734 -97.30772 2.27202 0.06120
12.76303 33.79353 1.39988 0.04982
11.84553 60.00168 3.29630 0.06839
12.76303 86.20983 4.17844 0.08418
68.66734 -112.68421 1.94984 0.06122
69.06442 -119.99832 1.65417 0.05595
68.66734 -127.31243 1.86712 0.05288
12.76303 3.79397 0.89866 0.04339
11.84553 30.00212 1.70673 0.04937
12.76303 56.21026 3.06169 0.06709
68.66734 -142.68377 1.50811 0.05226
69.06442 -149.99788 1.37662 0.05169
68.66734 -157.31200 1.34927 0.04542
12.76303 -26.20560 1.24899 0.04749
11.84553 0.00255 1.07849 0.04180
12.76303 26.21070 1.33920 0.04478
68.66734 -172.68334 1.15904 0.04667
69.06442 -179.99745 1.02925 0.04722
68.66734 172.68844 1.22186 0.04363
12.76303 -56.20645 2.69216 0.06947
11.84553 -29.99830 1.42215 0.04595
12.76303 -3.79015 0.77967 0.03632
68.66734 157.31581 1.38088 0.05452
69.06442 150.00170 1.39603 0.05350
68.66734 142.68759 1.72786 0.05114
12.76303 -86.20730 3.95865 0.08228
11.84553 -59.99915 2.79168 0.06310
12.76303 -33.79100 1.08962 0.04103
68.66734 127.31496 1.84697 0.06093
69.06442 120.00085 1.90076 0.05984
68.66734 112.68674 1.85858 0.05280
12.76303 -116.20815 3.35730 0.07470
11.84553 -90.00000 4.17786 0.07686
12.76303 -63.79185 2.55229 0.06184
68.66734 97.31411 1.85602 0.05830
69.06442 90.00000 2.12012 0.06535
68.66734 82.68589 1.99823 0.05656
16.46989 -110.28705 2.87315 0.07086
15.86376 -90.00000 3.43311 0.07059
16.46989 -69.71295 2.34835 0.06252
62.70303 97.52128 1.66052 0.05813
63.02687 90.00000 1.67579 0.05991
62.70303 82.47872 1.71959 0.05409
16.46989 -80.28877 3.15671 0.07591
15.86376 -60.00172 2.21492 0.05639
16.46989 -39.71467 0.69819 0.03685
62.70303 127.51955 2.22536 0.06605
63.02687 119.99828 1.97628 0.06297
62.70303 112.47700 1.83558 0.05352
16.46989 -50.28792 1.58526 0.05434
15.86376 -30.00087 0.63954 0.03376
16.46989 -9.71382 0.28338 0.02748
62.70303 157.52041 2.45902 0.06635
63.02687 149.99913 2.26553 0.06874
62.70303 142.47785 2.26892 0.05546
16.46989 -20.29093 0.40522 0.03149
15.86376 -0.00388 0.36601 0.02887
16.46989 20.28318 0.48080 0.03102
62.70303 -172.48260 2.42611 0.06712
63.02687 179.99612 2.21750 0.06326
62.70303 172.47485 2.50254 0.05968
16.46989 9.70864 0.36763 0.03036
15.86376 29.99569 0.85975 0.03807
16.46989 50.28274 2.03655 0.05806
62.70303 -142.48304 2.11765 0.06382
63.02687 -150.00431 2.10688 0.06635
62.70303 -157.52559 2.31747 0.05663
16.46989 39.71077 0.93232 0.04227
15.86376 59.99782 2.71655 0.06374
16.46989 80.28488 3.63051 0.07273
62.70303 -112.48090 1.76820 0.05893
63.02687 -120.00218 1.79752 0.06042
62.70303 -127.52345 2.21900 0.05908
16.46989 69.70905 3.04846 0.07274
15.86376 89.99610 3.82994 0.07735
16.46989 110.28316 2.53781 0.06409
62.70303 -82.48262 1.93235 0.06164
63.02687 -90.00390 1.99998 0.06485
62.70303 -97.52517 1.93956 0.05404
16.46989 99.70990 3.39904 0.07617
15.86376 119.99695 2.11194 0.05490
16.46989 140.28401 0.76328 0.03723
62.70303 -52.48177 2.29968 0.06964
63.02687 -60.00305 2.14003 0.06591
62.70303 -67.52432 1.96847 0.05424
16.46989 129.71204 1.59755 0.05373
15.86376 149.99909 0.61060 0.03451
16.46989 170.28614 0.29856 0.02766
62.70303 -22.47963 2.38964 0.06861
63.02687 -30.00091 2.12091 0.06418
62.70303 -37.52219 2.17336 0.05798
16.46989 159.71160 0.51921 0.03303
15.86376 179.99865 0.43614 0.02979
16.46989 -159.71429 0.65926 0.03521
62.70303 7.51993 2.49463 0.06798
63.02687 -0.00135 2.15785 0.06737
62.70303 -7.52262 2.38058 0.05672
16.46989 -170.29012 0.37657 0.03065
15.86376 -150.00307 0.98440 0.03992
16.46989 -129.71601 2.10879 0.05580
62.70303 37.51821 2.13593 0.06282
63.02687 29.99693 2.27618 0.06310
62.70303 22.47566 2.53250 0.06288
16.46989 -140.28927 1.17210 0.04557
15.86376 -120.00222 2.81815 0.06897
16.46989 -99.71516 3.49430 0.07406
62.70303 67.51906 1.54574 0.05388
63.02687 59.99778 1.70415 0.05951
62.70303 52.47651 2.12738 0.05722
20.35407 -136.58209 0.94355 0.04332
19.94675 -120.00222 2.12037 0.05716
20.35407 -103.42234 2.82505 0.06612
57.08758 67.79872 1.40171 0.05139
57.34405 59.99778 1.64608 0.05827
57.08758 52.19684 2.21249 0.05880
20.35407 -166.58166 0.19309 0.02577
19.94675 -150.00178 0.47921 0.03168
20.35407 -133.42191 1.28968 0.04574
57.08758 37.79916 2.45140 0.06748
57.34405 29.99822 2.79898 0.07498
57.08758 22.19728 3.47966 0.06700
20.35407 163.42007 0.17265 0.02502
19.94675 179.99994 0.16115 0.02491
20.35407 -163.42019 0.25370 0.02774
57.08758 7.80088 3.99806 0.08722
57.34405 -0.00006 3.68344 0.08165
57.08758 -7.80100 3.96332 0.07625
20.35407 133.42050 0.85613 0.04022
19.94675 150.00038 0.34721 0.02705
20.35407 166.58025 0.15416 0.02491
57.08758 -22.19869 3.46022 0.08090
57.34405 -29.99962 3.05398 0.07818
57.08758 -37.80056 2.64649 0.06265
20.35407 103.41965 2.60715 0.06852
19.94675 119.99952 1.57881 0.04994
20.35407 136.57940 0.44255 0.03161
57.08758 -52.19954 2.47981 0.06876
57.34405 -60.00048 2.33389 0.07039
57.08758 -67.80141 1.86367 0.05422
20.35407 73.42137 2.54413 0.06869
19.94675 90.00125 3.16632 0.06664
20.35407 106.58112 2.23242 0.05839
57.08758 -82.19782 1.64401 0.05539
57.34405 -89.99875 1.66539 0.05871
57.08758 -97.79969 1.66936 0.05187
20.35407 43.42181 0.68799 0.03761
19.94675 60.00168 1.98980 0.05478
20.35407 76.58156 2.80078 0.06703
57.08758 -112.19738 1.63062 0.05618
57.34405 -119.99832 1.93225 0.06130
57.08758 -127.79926 2.37941 0.06034
20.35407 13.42096 0.16338 0.02444
19.94675 30.00083 0.41238 0.02999
20.35407 46.58071 1.17345 0.04370
57.08758 -142.19823 2.51649 0.06894
57.34405 -149.99917 2.59123 0.07271
57.08758 -157.80011 3.42842 0.06802
20.35407 -16.57861 0.19509 0.02594
19.94675 0.00127 0.16502 0.02496
20.35407 16.58114 0.18721 0.02517
57.08758 -172.19780 3.92856 0.08492
57.34405 -179.99873 3.80378 0.08353
57.08758 172.20033 4.09362 0.07415
20.35407 -46.57817 0.87831 0.04342
19.94675 -29.99830 0.29270 0.02773
20.35407 -13.41842 0.14986 0.02436
57.08758 157.80264 3.69441 0.08155
57.34405 150.00170 3.13810 0.07426
57.08758 142.20076 2.61616 0.05892
20.35407 -76.57902 2.44943 0.06442
19.94675 -59.99915 1.44064 0.04712
20.35407 -43.41927 0.45020 0.03148
57.08758 127.80179 2.44970 0.06768
57.34405 120.00085 2.15480 0.06350
57.08758 112.19991 1.66575 0.05103
20.35407 -106.57987 2.44207 0.06409
19.94675 -90.00000 2.80974 0.06587
20.35407 -73.42013 2.10102 0.05659
57.08758 97.80094 1.42748 0.05571
57.34405 90.00000 1.54537 0.05857
57.08758 82.19906 1.44743 0.04712
24.37601 -104.08165 2.22143 0.06313
24.10869 -90.00000 2.43312 0.05988
24.37601 -75.91835 1.88402 0.05649
51.77717 98.16569 1.39253 0.05327
51.96990 90.00000 1.39511 0.05502
51.77717 81.83431 1.31414 0.04556
24.37601 -74.08466 2.01822 0.05850
24.10869 -60.00301 1.14867 0.04401
24.37601 -45.92135 0.45623 0.03260
51.77717 128.16269 2.16007 0.06319
51.96990 119.99699 1.95882 0.06551
51.77717 111.83130 1.52983 0.04933
24.37601 -44.08252 0.51769 0.03481
24.10869 -30.00087 0.17617 0.02398
24.37601 -15.91922 0.10226 0.02232
51.77717 158.16482 4.00717 0.09286
51.96990 149.99913 3.20131 0.08127
51.77717 141.83344 2.43563 0.06008
24.37601 -14.08553 0.14243 0.02513
24.10869 -0.00388 0.07961 0.02087
24.37601 14.07778 0.11111 0.02215
51.77717 -171.83818 4.30217 0.08914
51.96990 179.99612 4.56678 0.08994
51.77717 171.83043 4.35881 0.07814
24.37601 15.91403 0.11566 0.02251
24.10869 29.99569 0.24603 0.02661
24.37601 44.07734 0.73131 0.03708
51.77717 -141.83862 2.36395 0.06585
51.96990 -150.00431 2.82195 0.07456
51.77717 -158.17000 3.68235 0.07446
24.37601 45.91617 0.54040 0.03534
24.10869 59.99782 1.58237 0.05091
24.37601 74.07948 2.32819 0.05658
51.77717 -111.83648 1.43133 0.05242
51.96990 -120.00218 1.84340 0.05875
51.77717 -128.16787 2.24678 0.05818
24.37601 75.91445 2.23769 0.06350
24.10869 89.99610 2.57876 0.06379
24.37601 104.07776 1.98211 0.05696
51.77717 -81.83820 1.37582 0.05185
51.96990 -90.00390 1.52545 0.05742
51.77717 -98.16959 1.43840 0.04683
24.37601 105.91530 2.02620 0.06174
24.10869 119.99695 1.14746 0.04294
24.37601 134.07861 0.36851 0.02954
51.77717 -51.83735 2.31775 0.06602
51.96990 -60.00305 2.20081 0.06636
51.77717 -68.16874 1.75793 0.05172
24.37601 135.91744 0.50322 0.03393
24.10869 149.99909 0.18578 0.02492
24.37601 164.08074 0.06663 0.02111
51.77717 -21.83522 4.01739 0.08734
51.96990 -30.00091 3.38178 0.08174
51.77717 -38.16660 2.63017 0.06144
24.37601 165.91700 0.11814 0.02325
24.10869 179.99865 0.09681 0.02243
24.37601 -165.91969 0.15256 0.02448
51.77717 8.16435 4.43802 0.08737
51.96990 -0.00135 4.55787 0.09310
51.77717 -8.16704 4.52203 0.08042
24.37601 -164.08472 0.14194 0.02396
24.10869 -150.00307 0.30887 0.02884
24.37601 -135.92141 0.74782 0.03868
51.77717 38.16263 2.16885 0.06363
51.96990 29.99693 2.94209 0.07446
51.77717 21.83124 3.77055 0.07280
24.37601 -134.08258 0.69804 0.04005
24.10869 -120.00093 1.59225 0.05243
24.37601 -105.91928 2.43488 0.05773
51.77717 68.16476 1.27673 0.05159
51.96990 59.99907 1.58514 0.05664
51.77717 51.83338 2.07238 0.05599
28.52653 -132.30824 0.70077 0.04113
28.36567 -120.00093 1.37992 0.05037
28.52653 -107.69362 2.14277 0.05716
46.73358 68.63253 1.40929 0.05260
46.86401 59.99907 1.40893 0.05462
46.73358 51.36561 1.76682 0.05410
28.52653 -162.30781 0.17983 0.02472
28.36567 -150.00050 0.27761 0.02809
28.52653 -137.69318 0.64414 0.03677
46.73358 38.63297 1.86986 0.06132
46.86401 29.99950 2.54023 0.07060
46.73358 21.36604 3.47743 0.07048
28.52653 167.69263 0.11110 0.02237
28.36567 179.99994 0.13551 0.02315
28.52653 -167.69275 0.17793 0.02374
46.73358 8.63340 4.07392 0.08841
46.86401 -0.00006 4.32432 0.09246
46.73358 -8.63352 4.24368 0.07965
28.52653 137.69306 0.34513 0.03021
28.36567 150.00038 0.17752 0.02440
28.52653 162.30769 0.12349 0.02276
46.73358 -21.36616 3.78339 0.08857
46.86401 -29.99962 3.01736 0.07601
46.73358 -38.63309 2.32833 0.05979
28.52653 107.69221 1.65887 0.05579
28.36567 119.99952 0.91061 0.04105
28.52653 132.30684 0.40045 0.03066
46.73358 -51.36701 2.10873 0.06376
46.86401 -60.00048 1.94664 0.06379
46.73358 -68.63394 1.56719 0.05167
28.52653 77.69908 2.06424 0.06239
28.36567 90.00639 2.26785 0.05527
28.52653 102.31370 1.76165 0.05691
46.73358 -81.36015 1.36671 0.05433
46.86401 -89.99361 1.49441 0.05726
46.73358 -98.62707 1.51843 0.04895
28.52653 47.69180 0.55563 0.03614
28.36567 59.99911 1.20057 0.04613
28.52653 72.30642 2.12877 0.06085
46.73358 -111.36743 1.33304 0.05130
46.86401 -120.00089 1.65261 0.06315
46.73358 -128.63435 1.94945 0.05370
28.52653 17.69223 0.13154 0.02313
28.36567 29.99954 0.20387 0.02458
28.52653 42.30686 0.48835 0.03390
46.73358 -141.36699 2.10983 0.06011
46.86401 -150.00046 2.65643 0.07329
46.73358 -158.63392 3.43512 0.07331
28.52653 -12.30347 0.14069 0.02282
28.36567 0.00384 0.18163 0.02388
28.52653 12.31115 0.19242 0.02432
46.73358 -171.36270 4.03710 0.08852
46.86401 -179.99616 4.24680 0.09457
46.73358 171.37037 3.99195 0.07648
28.52653 -42.30561 0.42780 0.03345
28.36567 -29.99830 0.19629 0.02422
28.52653 -17.69099 0.13936 0.02243
46.73358 158.63516 3.54939 0.08111
46.86401 150.00170 2.76622 0.07250
46.73358 141.36824 2.20073 0.05868
28.52653 -72.30518 1.69398 0.05466
28.36567 -59.99786 0.93630 0.04116
28.52653 -47.69055 0.48022 0.03184
46.73358 128.63560 1.90803 0.06174
46.86401 120.00214 1.73881 0.06226
46.73358 111.36867 1.51844 0.04969
28.52653 -102.29960 2.19326 0.06362
28.36567 -89.99229 2.29218 0.05801
28.52653 -77.68497 1.82925 0.05648
46.73358 98.64118 1.39956 0.05311
46.86401 90.00771 1.45459 0.05488
46.73358 81.37425 1.50002 0.04855
32.82102 -100.98828 2.17561 0.06366
32.74665 -89.99229 2.30494 0.05985
32.82102 -78.99629 1.82630 0.05505
41.91203 99.23929 1.68151 0.05540
41.97916 90.00771 1.83132 0.06225
41.91203 80.77613 1.75041 0.05142
32.82102 -70.99900 1.54061 0.05521
32.74665 -60.00301 0.92828 0.04091
32.82102 -49.00702 0.62510 0.03565
41.91203 129.22857 1.30252 0.05299
41.97916 119.99699 1.37713 0.05703
41.91203 110.76541 1.50772 0.04885
32.82102 -40.99943 0.49609 0.03343
32.74665 -30.00344 0.38190 0.02865
32.82102 -19.00745 0.33565 0.02723
41.91203 159.22814 2.37679 0.06797
41.97916 149.99656 1.85809 0.06130
41.91203 140.76498 1.51723 0.05072
32.82102 -10.99730 0.33389 0.02852
32.74665 -0.00131 0.47567 0.02979
32.82102 10.99469 0.32919 0.02698
41.91203 -170.76973 2.69560 0.07306
41.97916 179.99869 2.89745 0.07518
41.91203 170.76711 2.71950 0.06275
32.82102 18.99841 0.26938 0.02734
32.74665 29.99440 0.30640 0.02635
32.82102 40.99039 0.54850 0.03226
41.91203 -140.77402 1.52292 0.05445
41.97916 -150.00560 1.80634 0.06377
41.91203 -159.23718 2.28423 0.06092
32.82102 49.00183 0.59028 0.03836
32.74665 59.99782 1.11884 0.04581
32.82102 70.99381 1.80466 0.05417
41.91203 -110.77060 1.62508 0.06058
41.97916 -120.00218 1.47387 0.05883
41.91203 -129.23376 1.48824 0.04916
32.82102 79.00140 2.02213 0.06085
32.74665 89.99739 2.24766 0.05680
32.82102 100.99338 1.85284 0.05538
41.91203 -80.77103 1.70183 0.06056
41.97916 -90.00261 1.76482 0.05967
41.91203 -99.23419 1.75077 0.05139
32.82102 109.00096 1.48684 0.05485
32.74665 119.99695 0.85087 0.03947
32.82102 130.99294 0.45801 0.03214
41.91203 -50.77147 1.78764 0.06241
41.97916 -60.00305 1.55573 0.05927
41.91203 -69.23463 1.68291 0.05214
32.82102 139.00181 0.38136 0.03029
32.74665 149.99780 0.29995 0.02639
32.82102 160.99379 0.26005 0.02610
41.91203 -20.77062 2.64939 0.07231
41.97916 -30.00220 2.05400 0.06444
41.91203 -39.23378 1.84094 0.05308
32.82102 169.00266 0.30235 0.02757
32.74665 179.99865 0.42052 0.02689
32.82102 -169.00535 0.34502 0.02812
41.91203 9.23023 2.78636 0.07182
41.97916 -0.00135 3.01870 0.07712
41.91203 -9.23293 2.98371 0.06909
32.82102 -160.99906 0.30608 0.02893
32.74665 -150.00307 0.48356 0.03214
32.82102 -139.00708 0.70517 0.03920
41.91203 39.22851 1.39004 0.05422
41.97916 29.99693 1.76739 0.06146
41.91203 20.76535 2.36161 0.05804
32.82102 -130.99821 0.72925 0.04076
32.74665 -120.00222 1.35594 0.04996
32.82102 -109.00623 2.09290 0.06152
41.91203 69.22936 1.37075 0.05275
41.97916 59.99778 1.32315 0.05304
41.91203 50.76620 1.32100 0.04604
37.27288 -130.00345 1.04796 0.04658
37.27278 -120.00222 1.46386 0.05234
37.27288 -110.00098 1.92430 0.05392
37.28556 69.99659 1.47624 0.05557
37.28566 59.99778 1.11884 0.05153
37.28556 49.99898 0.91109 0.04101
37.27288 -160.00173 0.75296 0.03862
37.27278 -150.00050 0.87026 0.03814
37.27288 -139.99926 0.98918 0.04224
37.28556 39.99831 0.89721 0.04562
37.28566 29.99950 0.89381 0.04557
37.28556 20.00070 1.11718 0.04286
37.27288 169.99871 0.98709 0.04117
37.27278 179.99994 1.07501 0.04050
37.27288 -169.99883 0.98730 0.03993
37.28556 9.99874 1.37983 0.05536
37.28566 -0.00006 1.72815 0.05653
37.28556 -9.99886 1.52226 0.04877
37.27288 139.99914 0.64072 0.03638
37.27278 150.00038 0.77603 0.03580
37.27288 160.00161 0.82593 0.03774
37.28556 -20.00082 1.24977 0.05251
37.28566 -29.99962 1.22966 0.05028
37.28556 -39.99843 1.07359 0.04229
37.27288 109.99958 1.33209 0.05273
37.27278 120.00081 0.97135 0.04093
37.27288 130.00204 0.72315 0.03696
37.28556 -50.00039 1.08527 0.04839
37.28566 -59.99919 1.30075 0.05295
37.28556 -69.99799 1.72753 0.05572
37.27288 79.99873 2.00703 0.06105
37.27278 89.99996 2.15909 0.05645
37.27288 100.00119 1.84604 0.05528
37.28556 -80.00124 1.75768 0.05814
37.28566 -90.00004 2.19528 0.06750
37.28556 -99.99884 2.03249 0.05696
37.27288 50.00816 0.78998 0.03994
37.27278 60.00940 1.22749 0.04649
37.27288 70.01063 1.70697 0.05415
37.28556 -109.99180 1.62053 0.05924
37.28566 -119.99060 1.37946 0.05734
37.28556 -129.98941 1.22278 0.04583
37.27288 19.99960 0.83474 0.04174
37.27278 30.00083 0.76419 0.03685
37.27288 40.00206 0.81922 0.03853
37.28556 -140.00037 1.08481 0.04610
37.28566 -149.99917 1.00392 0.04945
37.28556 -159.99797 1.23835 0.04411
37.27288 -9.99997 1.16586 0.04733
37.27278 0.00127 1.20148 0.04171
37.27288 10.00250 0.96753 0.04092
37.28556 -169.99993 1.26626 0.05203
37.28566 -179.99873 1.49527 0.05309
37.28556 170.00246 1.27806 0.04408
37.27288 -39.99953 0.83508 0.04074
37.27278 -29.99830 0.99654 0.04008
37.27288 -19.99707 1.01721 0.04213
37.28556 160.00050 1.07249 0.04814
37.28566 150.00170 0.93302 0.04663
37.28556 140.00290 0.91080 0.03957
37.27288 -70.00167 1.56784 0.05737
37.27278 -60.00044 1.08837 0.04233
37.27288 -49.99920 0.98106 0.04306
37.28556 129.99837 0.85357 0.04472
37.28566 119.99956 1.06259 0.05242
37.28556 110.00076 1.58327 0.05414
37.27288 -99.99995 2.04233 0.06286
37.27278 -89.99871 2.12418 0.05732
37.27288 -79.99748 1.78967 0.05427
37.28556 100.00009 1.77098 0.05947
37.28566 90.00129 2.21128 0.06837
37.28556 80.00248 2.05521 0.05859
