VULCAN
alpha beta intensity
Single peak fit using lmfit routine (P-V profile) at 2022-07-30 19:21:49.170374
5.55713 176.45997 0.06691 0.01390
0.00000 90.00000 0.12778 0.01606
5.55713 3.54003 0.04477 0.01265
89.31892 97.05324 -0.02606 0.00848
90.00000 -90.00000 0.01820 0.01224
89.31892 82.94676 -0.00032 200446.62087
5.55713 -153.54175 0.07372 0.01489
0.00000 119.99828 0.12312 0.01747
5.55713 33.53831 0.09560 0.01535
89.31892 127.05152 0.03316 0.01269
90.00000 -60.00172 0.06830 0.01483
89.31892 112.94504 0.09019 0.01404
5.55713 -123.54090 0.09971 0.01575
0.00000 149.99913 0.13959 0.01750
5.55713 63.53916 0.12694 0.01619
89.31892 157.05237 0.03833 0.01353
90.00000 -30.00087 0.09024 0.01619
89.31892 142.94589 0.03884 0.01231
5.55713 -93.54134 0.13307 0.01739
0.00000 179.99869 0.12429 0.01611
5.55713 93.53873 0.14259 0.01627
89.31892 -172.94807 0.02636 0.01290
90.00000 -0.00131 -0.02789 0.00957
89.31892 172.94546 0.00356 0.01048
5.55713 -63.54306 0.12637 0.01735
0.00000 -150.00303 0.13249 0.01641
5.55713 123.53700 0.07368 0.01437
89.31892 -142.94979 0.01996 0.01237
90.00000 29.99697 0.10295 0.01647
89.31892 -157.05627 0.09368 0.01400
5.55713 -33.54092 0.09007 0.01485
0.00000 -120.00089 0.13775 0.01686
5.55713 153.53914 0.07193 0.01372
89.31892 -112.94765 0.05897 0.01479
90.00000 59.99911 0.10367 0.01598
89.31892 -127.05413 0.04614 0.01257
5.55713 -3.54136 0.06987 0.01399
0.00000 -90.00133 0.16628 0.01743
5.55713 -176.46129 0.06174 0.01378
89.31892 -82.94809 0.01599 0.01290
90.00000 89.99867 -0.01375 0.01050
89.31892 -97.05456 0.00971 0.01077
5.55713 26.45692 0.08162 0.01522
0.00000 -60.00305 0.12707 0.01638
5.55713 -146.46302 0.07994 0.01476
89.31892 -52.94981 0.03249 0.01328
90.00000 119.99695 0.08095 0.01554
89.31892 -67.05629 0.09321 0.01462
5.55713 56.45906 0.06240 0.01427
0.00000 -30.00091 0.13325 0.01649
5.55713 -116.46088 0.10709 0.01584
89.31892 -22.94767 0.05857 0.01510
90.00000 149.99909 0.09640 0.01603
89.31892 -37.05415 0.02777 0.01176
5.55713 86.45862 0.13227 0.01644
0.00000 -0.00135 0.14337 0.01621
5.55713 -86.46131 0.12083 0.01629
89.31892 7.05189 0.00748 0.01236
90.00000 179.99865 -0.01043 0.01048
89.31892 -7.05458 0.02348 0.01118
5.55713 116.45690 0.14519 0.01704
0.00000 29.99693 0.13422 0.01674
5.55713 -56.46304 0.08733 0.01487
89.31892 37.05017 -0.02593 0.00858
90.00000 -150.00307 0.08253 0.01509
89.31892 22.94369 0.08168 0.01458
5.55713 146.45904 0.11184 0.01560
0.00000 59.99907 0.12642 0.01691
5.55713 -26.46090 0.04774 0.01303
89.31892 67.05231 0.05503 0.01360
90.00000 -120.00093 0.08961 0.01522
89.31892 52.94583 0.05513 0.01282
6.60131 -177.30280 0.05334 0.01293
3.92476 -120.00093 0.13586 0.01679
6.60131 -62.69906 0.08926 0.01474
81.90616 67.08360 0.05287 0.01393
82.47848 59.99907 0.09744 0.01555
81.90616 52.91454 0.03807 0.01196
6.60131 152.69764 0.10321 0.01605
3.92476 -150.00050 0.12860 0.01650
6.60131 -92.69863 0.10267 0.01619
81.90616 37.08404 0.04384 0.01301
82.47848 29.99950 0.07834 0.01537
81.90616 22.91497 0.11266 0.01578
6.60131 122.69807 0.11621 0.01535
3.92476 179.99994 0.10773 0.01432
6.60131 -122.69819 0.13925 0.01695
81.90616 7.08447 0.01347 0.01252
82.47848 -0.00006 0.04811 0.01489
81.90616 -7.08459 -0.01209 0.01031
6.60131 92.69851 0.11586 0.01630
3.92476 150.00038 0.08834 0.01504
6.60131 -152.69776 0.08931 0.01427
81.90616 -22.91509 0.03389 0.01451
82.47848 -29.99962 0.09581 0.01710
81.90616 -37.08416 0.05727 0.01336
6.60131 62.69766 0.10548 0.01560
3.92476 119.99952 0.12308 0.01665
6.60131 177.30139 0.04466 0.01238
81.90616 -52.91594 0.05115 0.01448
82.47848 -60.00048 0.11670 0.01777
81.90616 -67.08501 0.11683 0.01532
6.60131 32.69809 0.06138 0.01420
3.92476 89.99996 0.14592 0.01751
6.60131 147.30183 0.04353 0.01270
81.90616 -82.91551 0.01555 0.01263
82.47848 -90.00004 -0.01462 0.01096
81.90616 -97.08457 0.01274 0.01123
6.60131 2.69724 0.03245 0.01230
3.92476 59.99911 0.12333 0.01598
6.60131 117.30098 0.10960 0.01609
81.90616 -112.91636 0.06762 0.01446
82.47848 -120.00089 0.11442 0.01713
81.90616 -127.08542 0.03229 0.01208
6.60131 -27.30232 0.04982 0.01325
3.92476 29.99954 0.10816 0.01531
6.60131 87.30141 0.12022 0.01677
81.90616 -142.91592 0.02599 0.01226
82.47848 -150.00046 0.08385 0.01542
81.90616 -157.08499 0.09914 0.01546
6.60131 -57.30189 0.09817 0.01547
3.92476 -0.00002 0.10736 0.01512
6.60131 57.30185 0.09971 0.01496
81.90616 -172.91549 0.03419 0.01351
82.47848 179.99998 -0.01492 0.01024
81.90616 172.91545 0.02363 0.01171
6.60131 -87.30145 0.14003 0.01758
3.92476 -29.99958 0.09112 0.01431
6.60131 27.30228 0.05943 0.01347
81.90616 157.08495 0.06577 0.01478
82.47848 150.00042 0.08347 0.01608
81.90616 142.91588 0.05966 0.01298
6.60131 -117.30230 0.07848 0.01510
3.92476 -60.00044 0.09593 0.01575
6.60131 -2.69857 0.04156 0.01253
81.90616 127.08410 0.03808 0.01221
82.47848 119.99956 0.05935 0.01451
81.90616 112.91503 0.10848 0.01463
6.60131 -147.30187 0.09042 0.01523
3.92476 -90.00000 0.14419 0.01748
6.60131 -32.69813 0.05177 0.01268
81.90616 97.08453 0.02175 0.01281
82.47848 90.00000 -0.00000 61077.00266
81.90616 82.91547 -0.02577 0.00909
9.34588 -126.69781 0.06021 0.01392
7.86923 -90.00000 0.11351 0.01592
9.34588 -53.30219 0.06957 0.01410
75.04809 97.17037 -0.01179 0.01010
75.52700 90.00000 0.01403 0.01238
75.04809 82.82963 -0.03369 0.00826
9.34588 -96.69953 0.10250 0.01557
7.86923 -60.00172 0.07781 0.01395
9.34588 -23.30391 0.00280 0.01080
75.04809 127.16864 0.03859 0.01341
75.52700 119.99828 0.11218 0.01667
75.04809 112.82791 0.08747 0.01392
9.34588 -66.69868 0.12913 0.01742
7.86923 -30.00087 0.06409 0.01312
9.34588 6.69694 0.02023 0.01207
75.04809 157.16950 0.08747 0.01518
75.52700 149.99913 0.10773 0.01680
75.04809 142.82876 0.04095 0.01233
9.34588 -36.69912 0.04059 0.01312
7.86923 -0.00131 0.06616 0.01334
9.34588 36.69651 0.03693 0.01257
75.04809 -172.83094 0.01909 0.01190
75.52700 179.99869 0.28130 0.03475
75.04809 172.82833 0.02125 0.01132
9.34588 -6.70212 0.02875 0.01275
7.86923 29.99569 0.05743 0.01269
9.34588 66.69350 0.11850 0.01595
75.04809 -142.83395 0.02039 0.01200
75.52700 -150.00431 0.09341 0.01621
75.04809 -157.17468 0.11951 0.01544
9.34588 23.30130 0.03222 0.01198
7.86923 59.99911 0.10833 0.01531
9.34588 96.69692 0.13000 0.01735
75.04809 -112.83052 0.05970 0.01448
75.52700 -120.00089 0.13232 0.01785
75.04809 -127.17126 0.05018 0.01255
9.34588 53.29700 0.05395 0.01373
7.86923 89.99482 0.11014 0.01588
9.34588 126.69263 0.04576 0.01317
75.04809 -82.83482 0.01209 0.01230
75.52700 -90.00518 0.01149 0.01238
75.04809 -97.17555 0.01749 0.01211
9.34588 83.29914 0.12437 0.01662
7.86923 119.99695 0.09818 0.01485
9.34588 156.69477 0.03468 0.01229
75.04809 -52.83268 0.06751 0.01517
75.52700 -60.00305 0.12569 0.01744
75.04809 -67.17341 0.10976 0.01514
9.34588 113.30128 0.10463 0.01634
7.86923 149.99909 0.04476 0.01251
9.34588 -173.30310 0.05986 0.01317
75.04809 -22.83054 0.08202 0.01605
75.52700 -30.00091 0.07898 0.01586
75.04809 -37.17128 0.04669 0.01269
9.34588 143.30084 0.05774 0.01333
7.86923 179.99865 0.05937 0.01269
9.34588 -143.30353 0.04896 0.01332
75.04809 7.16902 0.00874 0.01188
75.52700 -0.00135 0.02778 0.01283
75.04809 -7.17171 -0.00734 0.00915
9.34588 173.29912 0.03504 0.01299
7.86923 -150.00307 0.06305 0.01290
9.34588 -113.30525 0.10244 0.01590
75.04809 37.16730 0.02112 0.01260
75.52700 29.99693 0.10128 0.01545
75.04809 22.82657 0.09776 0.01430
9.34588 -156.69874 0.03572 0.01227
7.86923 -120.00093 0.09548 0.01527
9.34588 -83.30312 0.11252 0.01666
75.04809 67.16944 0.04212 0.01335
75.52700 59.99907 0.13078 0.01675
75.04809 52.82870 0.06432 0.01273
12.76303 -146.20908 0.02927 0.01279
11.84553 -120.00093 0.10550 0.01535
12.76303 -93.79278 0.09561 0.01570
68.66734 67.31318 0.06534 0.01448
69.06442 59.99907 0.12688 0.01748
68.66734 52.68496 0.06313 0.01289
12.76303 -176.20864 0.00629 0.01094
11.84553 -150.00050 0.03501 0.01160
12.76303 -123.79235 0.06862 0.01409
68.66734 37.31362 -0.00577 0.01054
69.06442 29.99950 0.11426 0.01642
68.66734 22.68539 0.10149 0.01467
12.76303 153.79179 0.03339 0.01241
11.84553 179.99994 0.03024 0.01156
12.76303 -153.79191 0.02308 0.01246
68.66734 7.31405 0.02005 0.01211
69.06442 -0.00006 0.02897 0.01299
68.66734 -7.31417 0.01743 0.01125
12.76303 123.79223 0.06277 0.01343
11.84553 150.00038 0.04659 0.01181
12.76303 176.20852 -0.00233 0.01021
68.66734 -22.68551 0.07279 0.01534
69.06442 -29.99962 0.14634 0.01799
68.66734 -37.31374 0.03447 0.01248
12.76303 93.79138 0.05555 0.01455
11.84553 119.99952 0.07731 0.01324
12.76303 146.20767 0.02554 0.01163
68.66734 -52.68636 0.03654 0.01398
69.06442 -60.00048 0.12807 0.01764
68.66734 -67.31459 0.12638 0.01597
12.76303 63.79824 0.07338 0.01429
11.84553 90.00639 0.12395 0.01598
12.76303 116.21454 0.07610 0.01364
68.66734 -82.67950 0.03640 0.01404
69.06442 -89.99361 -0.01436 0.01020
68.66734 -97.30772 0.01696 0.01186
12.76303 33.79353 0.01107 0.01107
11.84553 60.00168 0.10722 0.01487
12.76303 86.20983 0.11402 0.01682
68.66734 -112.68421 0.07438 0.01482
69.06442 -119.99832 0.09160 0.01517
68.66734 -127.31243 0.09705 0.01426
12.76303 3.79397 0.03082 0.01279
11.84553 30.00212 0.03010 0.01139
12.76303 56.21026 0.08019 0.01409
68.66734 -142.68377 0.04893 0.01299
69.06442 -149.99788 0.09883 0.01536
68.66734 -157.31200 0.11197 0.01458
12.76303 -26.20560 0.02789 0.01231
11.84553 0.00255 0.02132 0.01147
12.76303 26.21070 0.03738 0.01213
68.66734 -172.68334 0.03479 0.01236
69.06442 -179.99745 -0.01725 0.00972
68.66734 172.68844 0.00653 0.01039
12.76303 -56.20645 0.07578 0.01463
11.84553 -29.99830 0.03772 0.01193
12.76303 -3.79015 0.01405 0.01097
68.66734 157.31581 0.08138 0.01564
69.06442 150.00170 0.11315 0.01634
68.66734 142.68759 0.06167 0.01292
12.76303 -86.20730 0.12121 0.01615
11.84553 -59.99915 0.07480 0.01354
12.76303 -33.79100 0.02708 0.01154
68.66734 127.31496 0.03936 0.01335
69.06442 120.00085 0.10333 0.01571
68.66734 112.68674 0.09488 0.01427
12.76303 -116.20815 0.07852 0.01436
11.84553 -90.00000 0.10402 0.01475
12.76303 -63.79185 0.06291 0.01350
68.66734 97.31411 0.04725 0.01330
69.06442 90.00000 -0.01328 0.00988
68.66734 82.68589 0.01351 0.01125
16.46989 -110.28705 0.12801 0.01674
15.86376 -90.00000 0.09239 0.01469
16.46989 -69.71295 0.07285 0.01483
62.70303 97.52128 0.04863 0.01368
63.02687 90.00000 0.02903 0.01310
62.70303 82.47872 0.02145 0.01187
16.46989 -80.28877 0.10940 0.01643
15.86376 -60.00172 0.06471 0.01305
16.46989 -39.71467 0.03466 0.01253
62.70303 127.51955 0.06767 0.01484
63.02687 119.99828 0.13928 0.01759
62.70303 112.47700 0.14056 0.01593
16.46989 -50.28792 0.05749 0.01398
15.86376 -30.00087 0.02053 0.01146
16.46989 -9.71382 0.01972 0.01233
62.70303 157.52041 0.12691 0.01636
63.02687 149.99913 0.13125 0.01774
62.70303 142.47785 0.04346 0.01165
16.46989 -20.29093 0.03159 0.01312
15.86376 -0.00388 0.01225 0.01153
16.46989 20.28318 0.00522 0.01110
62.70303 -172.48260 0.04049 0.01344
63.02687 179.99612 -0.01554 0.00957
62.70303 172.47485 0.03238 0.01178
16.46989 9.70864 0.01403 0.01176
15.86376 29.99569 0.02354 0.01146
16.46989 50.28274 0.07052 0.01442
62.70303 -142.48304 -0.00900 0.01033
63.02687 -150.00431 0.06214 0.01493
62.70303 -157.52559 0.14352 0.01546
16.46989 39.71077 -0.00943 0.00999
15.86376 59.99782 0.05981 0.01342
16.46989 80.28488 0.11426 0.01560
62.70303 -112.48090 0.05896 0.01429
63.02687 -120.00218 0.11733 0.01665
62.70303 -127.52345 0.06950 0.01359
16.46989 69.70905 0.11043 0.01592
15.86376 89.99610 0.06548 0.01387
16.46989 110.28316 0.07979 0.01452
62.70303 -82.48262 0.03497 0.01341
63.02687 -90.00390 -0.01606 0.01041
62.70303 -97.52517 0.02045 0.01125
16.46989 99.70990 0.09650 0.01542
15.86376 119.99695 0.07937 0.01348
16.46989 140.28401 0.00973 0.01100
62.70303 -52.48177 0.04350 0.01426
63.02687 -60.00305 0.13664 0.01790
62.70303 -67.52432 0.10718 0.01461
16.46989 129.71204 0.04440 0.01307
15.86376 149.99909 0.01464 0.01147
16.46989 170.28614 0.02723 0.01257
62.70303 -22.47963 0.13552 0.01753
63.02687 -30.00091 0.13012 0.01725
62.70303 -37.52219 0.03167 0.01202
16.46989 159.71160 0.01030 0.01115
15.86376 179.99865 0.02031 0.01166
16.46989 -159.71429 0.01097 0.01138
62.70303 7.51993 0.03608 0.01300
63.02687 -0.00135 0.01737 0.01266
62.70303 -7.52262 0.03619 0.01149
16.46989 -170.29012 0.02364 0.01221
15.86376 -150.00307 0.01605 0.01116
16.46989 -129.71601 0.06284 0.01335
62.70303 37.51821 0.02587 0.01229
63.02687 29.99693 0.08656 0.01445
62.70303 22.47566 0.15135 0.01646
16.46989 -140.28927 0.04415 0.01269
15.86376 -120.00222 0.10580 0.01616
16.46989 -99.71516 0.08420 0.01486
62.70303 67.51906 0.07314 0.01421
63.02687 59.99778 0.13379 0.01753
62.70303 52.47651 0.10338 0.01468
20.35407 -136.58209 0.03544 0.01318
19.94675 -120.00222 0.09518 0.01480
20.35407 -103.42234 0.06067 0.01401
57.08758 67.79872 0.07664 0.01443
57.34405 59.99778 0.19257 0.01953
57.08758 52.19684 0.14208 0.01625
20.35407 -166.58166 0.03451 0.01308
19.94675 -150.00178 0.03764 0.01250
20.35407 -133.42191 0.06184 0.01355
57.08758 37.79916 0.02746 0.01252
57.34405 29.99822 0.10257 0.01638
57.08758 22.19728 0.21726 0.01703
20.35407 163.42007 0.01460 0.01258
19.94675 179.99994 0.01323 0.01265
20.35407 -163.42019 0.01435 0.01302
57.08758 7.80088 0.18813 0.01949
57.34405 -0.00006 0.09295 0.01557
57.08758 -7.80100 0.12357 0.01575
20.35407 133.42050 0.02873 0.01207
19.94675 150.00038 0.04075 0.01228
20.35407 166.58025 0.02254 0.01317
57.08758 -22.19869 0.22266 0.02040
57.34405 -29.99962 0.12316 0.01734
57.08758 -37.80056 0.02273 0.01162
20.35407 103.41965 0.09797 0.01542
19.94675 119.99952 0.05763 0.01297
20.35407 136.57940 0.02767 0.01271
57.08758 -52.19954 0.10967 0.01658
57.34405 -60.00048 0.19846 0.02043
57.08758 -67.80141 0.12777 0.01587
20.35407 73.42137 0.10921 0.01618
19.94675 90.00125 0.10249 0.01469
20.35407 106.58112 0.07872 0.01429
57.08758 -82.19782 0.04819 0.01337
57.34405 -89.99875 0.01250 0.01249
57.08758 -97.79969 0.02617 0.01190
20.35407 43.42181 0.03289 0.01255
19.94675 60.00168 0.07239 0.01375
20.35407 76.58156 0.06707 0.01445
57.08758 -112.19738 0.08164 0.01533
57.34405 -119.99832 0.16587 0.01839
57.08758 -127.79926 0.16911 0.01705
20.35407 13.42096 0.01691 0.01204
19.94675 30.00083 0.02959 0.01218
20.35407 46.58071 0.01768 0.01156
57.08758 -142.19823 0.02953 0.01283
57.34405 -149.99917 0.08999 0.01617
57.08758 -157.80011 0.19358 0.01705
20.35407 -16.57861 0.03565 0.01314
19.94675 0.00127 -0.01327 0.01060
20.35407 16.58114 0.03311 0.01331
57.08758 -172.19780 0.17831 0.01882
57.34405 -179.99873 0.06909 0.01469
57.08758 172.20033 0.17296 0.01639
20.35407 -46.57817 0.02912 0.01287
19.94675 -29.99830 0.02586 0.01250
20.35407 -13.41842 0.02987 0.01375
57.08758 157.80264 0.21734 0.01992
57.34405 150.00170 0.13313 0.01662
57.08758 142.20076 0.04945 0.01194
20.35407 -76.57902 0.09496 0.01504
19.94675 -59.99915 0.05820 0.01302
20.35407 -43.41927 0.01551 0.01189
57.08758 127.80179 0.08438 0.01529
57.34405 120.00085 0.21817 0.01972
57.08758 112.19991 0.17095 0.01686
20.35407 -106.57987 0.07108 0.01439
19.94675 -90.00000 0.05668 0.01364
20.35407 -73.42013 0.07215 0.01388
57.08758 97.80094 0.04482 0.01437
57.34405 90.00000 0.04191 0.01400
57.08758 82.19906 0.05019 0.01243
24.37601 -104.08165 0.10338 0.01594
24.10869 -90.00000 0.06348 0.01334
24.37601 -75.91835 0.11987 0.01626
51.77717 98.16569 0.08767 0.01547
51.96990 90.00000 0.06559 0.01496
51.77717 81.83431 0.06459 0.01318
24.37601 -74.08466 0.11548 0.01569
24.10869 -60.00301 0.03425 0.01215
24.37601 -45.92135 0.01468 0.01226
51.77717 128.16269 0.17239 0.01819
51.96990 119.99699 0.24970 0.02221
51.77717 111.83130 0.17437 0.01707
24.37601 -44.08252 0.02487 0.01243
24.10869 -30.00087 0.01956 0.01227
24.37601 -15.91922 0.05549 0.01461
51.77717 158.16482 0.26611 0.02333
51.96990 149.99913 0.11444 0.01711
51.77717 141.83344 0.07147 0.01347
24.37601 -14.08553 0.03500 0.01414
24.10869 -0.00388 0.02812 0.01310
24.37601 14.07778 0.02655 0.01279
51.77717 -171.83818 0.29680 0.02237
51.96990 179.99612 0.26229 0.02083
51.77717 171.83043 0.29000 0.01987
24.37601 15.91403 0.03181 0.01277
24.10869 29.99569 0.03062 0.01288
24.37601 44.07734 0.02551 0.01225
51.77717 -141.83862 0.07293 0.01462
51.96990 -150.00431 0.05435 0.01419
51.77717 -158.17000 0.18556 0.01750
24.37601 45.91617 0.03243 0.01295
24.10869 59.99782 0.08769 0.01478
24.37601 74.07948 0.07318 0.01356
51.77717 -111.83648 0.10838 0.01619
51.96990 -120.00218 0.21799 0.01970
51.77717 -128.16787 0.17073 0.01700
24.37601 75.91445 0.09509 0.01544
24.10869 89.99610 0.06737 0.01411
24.37601 104.07776 0.08533 0.01494
51.77717 -81.83820 0.08345 0.01530
51.96990 -90.00390 0.06780 0.01526
51.77717 -98.16959 0.06307 0.01304
24.37601 105.91530 0.08687 0.01512
24.10869 119.99695 0.04579 0.01249
24.37601 134.07861 0.02788 0.01218
51.77717 -51.83735 0.13676 0.01715
51.96990 -60.00305 0.21093 0.02016
51.77717 -68.16874 0.18868 0.01728
24.37601 135.91744 0.01991 0.01199
24.10869 149.99909 0.02338 0.01274
24.37601 164.08074 0.01412 0.01278
51.77717 -21.83522 0.25152 0.02155
51.96990 -30.00091 0.09642 0.01629
51.77717 -38.16660 0.07778 0.01356
24.37601 165.91700 0.04130 0.01375
24.10869 179.99865 0.00441 0.01205
24.37601 -165.91969 0.03142 0.01359
51.77717 8.16435 0.26243 0.02066
51.96990 -0.00135 0.24654 0.02139
51.77717 -8.16704 0.31963 0.02074
24.37601 -164.08472 0.03478 0.01328
24.10869 -150.00307 0.03014 0.01318
24.37601 -135.92141 0.04994 0.01385
51.77717 38.16263 0.07677 0.01474
51.96990 29.99693 0.07856 0.01502
51.77717 21.83124 0.24793 0.01883
24.37601 -134.08258 0.06470 0.01485
24.10869 -120.00093 0.07875 0.01489
24.37601 -105.91928 0.09388 0.01431
51.77717 68.16476 0.11955 0.01675
51.96990 59.99907 0.17030 0.01829
51.77717 51.83338 0.16736 0.01649
28.52653 -132.30824 0.05394 0.01496
28.36567 -120.00093 0.11705 0.01668
28.52653 -107.69362 0.11946 0.01565
46.73358 68.63253 0.20131 0.01915
46.86401 59.99907 0.22451 0.02063
46.73358 51.36561 0.18765 0.01794
28.52653 -162.30781 0.02089 0.01228
28.36567 -150.00050 0.02126 0.01262
28.52653 -137.69318 0.04213 0.01354
46.73358 38.63297 0.11917 0.01695
46.86401 29.99950 0.05670 0.01422
46.73358 21.36604 0.10471 0.01448
28.52653 167.69263 0.02131 0.01220
28.36567 179.99994 0.02773 0.01317
28.52653 -167.69275 0.03337 0.01307
46.73358 8.63340 0.27724 0.02229
46.86401 -0.00006 0.24467 0.02191
46.73358 -8.63352 0.26877 0.01992
28.52653 137.69306 0.03021 0.01294
28.36567 150.00038 0.03145 0.01288
28.52653 162.30769 0.01285 0.01220
46.73358 -21.36616 0.18202 0.02010
46.86401 -29.99962 0.07185 0.01506
46.73358 -38.63309 0.08239 0.01424
28.52653 107.69221 0.11626 0.01622
28.36567 119.99952 0.06734 0.01394
28.52653 132.30684 0.05468 0.01384
46.73358 -51.36701 0.20403 0.01972
46.86401 -60.00048 0.28584 0.02274
46.73358 -68.63394 0.23461 0.01946
28.52653 77.69908 0.08849 0.01545
28.36567 90.00639 0.05935 0.01258
28.52653 102.31370 0.10466 0.01640
46.73358 -81.36015 0.10902 0.01709
46.86401 -89.99361 0.08284 0.01596
46.73358 -98.62707 0.12775 0.01555
28.52653 47.69180 0.02682 0.01284
28.36567 59.99911 0.09789 0.01535
28.52653 72.30642 0.10945 0.01640
46.73358 -111.36743 0.19550 0.01918
46.86401 -120.00089 0.24380 0.02287
46.73358 -128.63435 0.25763 0.01885
28.52653 17.69223 0.01430 0.01207
28.36567 29.99954 0.01710 0.01202
28.52653 42.30686 0.04559 0.01385
46.73358 -141.36699 0.11052 0.01544
46.86401 -150.00046 0.06757 0.01501
46.73358 -158.63392 0.16804 0.01731
28.52653 -12.30347 0.01228 0.01168
28.36567 0.00384 0.02579 0.01246
28.52653 12.31115 0.04064 0.01317
46.73358 -171.36270 0.23484 0.02121
46.86401 -179.99616 0.21920 0.02158
46.73358 171.37037 0.23543 0.01874
28.52653 -42.30561 0.03011 0.01311
28.36567 -29.99830 0.03359 0.01247
28.52653 -17.69099 0.03184 0.01285
46.73358 158.63516 0.16151 0.01826
46.86401 150.00170 0.08083 0.01498
46.73358 141.36824 0.10040 0.01482
28.52653 -72.30518 0.12824 0.01638
28.36567 -59.99786 0.09945 0.01531
28.52653 -47.69055 0.02632 0.01235
46.73358 128.63560 0.17066 0.01867
46.86401 120.00214 0.24433 0.02214
46.73358 111.36867 0.24160 0.01918
28.52653 -102.29960 0.07458 0.01498
28.36567 -89.99229 0.05715 0.01331
28.52653 -77.68497 0.11655 0.01646
46.73358 98.64118 0.13783 0.01736
46.86401 90.00771 0.06854 0.01487
46.73358 81.37425 0.13117 0.01573
32.82102 -100.98828 0.08191 0.01515
32.74665 -89.99229 0.04685 0.01314
32.82102 -78.99629 0.13963 0.01687
41.91203 99.23929 0.13216 0.01659
41.97916 90.00771 0.06071 0.01492
41.91203 80.77613 0.15985 0.01640
32.82102 -70.99900 0.13092 0.01732
32.74665 -60.00301 0.07646 0.01432
32.82102 -49.00702 0.03390 0.01324
41.91203 129.22857 0.12667 0.01718
41.97916 119.99699 0.17649 0.01990
41.91203 110.76541 0.23762 0.01880
32.82102 -40.99943 0.04902 0.01323
32.74665 -30.00344 0.04145 0.01258
32.82102 -19.00745 0.03920 0.01261
41.91203 159.22814 0.05509 0.01417
41.97916 149.99656 0.05325 0.01400
41.91203 140.76498 0.06440 0.01351
32.82102 -10.99730 0.04125 0.01309
32.74665 -0.00131 -0.00729 1.11741
32.82102 10.99469 0.03376 0.01221
41.91203 -170.76973 0.04755 0.01419
41.97916 179.99869 0.08792 0.01565
41.91203 170.76711 0.09018 0.01412
32.82102 18.99841 0.03797 0.01288
32.74665 29.99440 0.02039 0.01153
32.82102 40.99039 0.02993 0.01192
41.91203 -140.77402 0.09176 0.01553
41.97916 -150.00560 0.08033 0.01616
41.91203 -159.23718 0.08861 0.01475
32.82102 49.00183 0.04432 0.01411
32.74665 59.99782 0.11408 0.01667
32.82102 70.99381 0.10531 0.01563
41.91203 -110.77060 0.19972 0.02079
41.97916 -120.00218 0.21784 0.02161
41.91203 -129.23376 0.20474 0.01812
32.82102 79.00140 0.08192 0.01502
32.74665 89.99739 0.04590 0.01254
32.82102 100.99338 0.12402 0.01627
41.91203 -80.77103 0.18325 0.01986
41.97916 -90.00261 0.11099 0.01647
41.91203 -99.23419 0.12675 0.01525
32.82102 109.00096 0.15570 0.01802
32.74665 119.99695 0.07152 0.01400
32.82102 130.99294 0.05113 0.01380
41.91203 -50.77147 0.15357 0.01922
41.97916 -60.00305 0.22887 0.02169
41.91203 -69.23463 0.22580 0.01882
32.82102 139.00181 0.02460 0.01225
32.74665 149.99780 0.04707 0.01281
32.82102 160.99379 0.02792 0.01235
41.91203 -20.77062 0.07546 0.01511
41.97916 -30.00220 0.07373 0.01509
41.91203 -39.23378 0.09850 0.01434
32.82102 169.00266 0.03144 0.01264
32.74665 179.99865 0.00920 0.01016
32.82102 -169.00535 0.03690 0.01262
41.91203 9.23023 0.11849 0.01662
41.97916 -0.00135 0.12867 0.01732
41.91203 -9.23293 0.07540 0.01423
32.82102 -160.99906 0.02861 0.01291
32.74665 -150.00307 0.04270 0.01311
32.82102 -139.00708 0.06617 0.01512
41.91203 39.22851 0.07376 0.01489
41.97916 29.99693 0.03575 0.01342
41.91203 20.76535 0.06177 0.01278
32.82102 -130.99821 0.04195 0.01388
32.74665 -120.00222 0.13477 0.01741
32.82102 -109.00623 0.14518 0.01782
41.91203 69.22936 0.20640 0.01992
41.97916 59.99778 0.19589 0.01944
41.91203 50.76620 0.17194 0.01668
37.27288 -130.00345 0.12474 0.01713
37.27278 -120.00222 0.16974 0.01874
37.27288 -110.00098 0.19189 0.01780
37.28556 69.99659 0.15806 0.01825
37.28566 59.99778 0.13328 0.01828
37.28556 49.99898 0.09419 0.01489
37.27288 -160.00173 0.03350 0.01235
37.27278 -150.00050 0.03972 0.01222
37.27288 -139.99926 0.06697 0.01428
37.28556 39.99831 0.06114 0.01475
37.28566 29.99950 0.06224 0.01461
37.28556 20.00070 0.04444 0.01230
37.27288 169.99871 0.05236 0.01271
37.27278 179.99994 0.02970 0.01183
37.27288 -169.99883 0.04349 0.01245
37.28556 9.99874 0.04754 0.01441
37.28566 -0.00006 0.03510 0.01261
37.28556 -9.99886 0.02931 0.01170
37.27288 139.99914 0.03772 0.01265
37.27278 150.00038 0.02639 0.01152
37.27288 160.00161 0.03280 0.01246
37.28556 -20.00082 0.04568 0.01426
37.28566 -29.99962 0.05847 0.01405
37.28556 -39.99843 0.08664 0.01407
37.27288 109.99958 0.13285 0.01760
37.27278 120.00081 0.09574 0.01459
37.27288 130.00204 0.04714 0.01304
37.28556 -50.00039 0.09945 0.01630
37.28566 -59.99919 0.20087 0.02013
37.28556 -69.99799 0.25494 0.02064
37.27288 79.99873 0.10154 0.01597
37.27278 89.99996 0.04551 0.01268
37.27288 100.00119 0.14832 0.01724
37.28556 -80.00124 0.13837 0.01734
37.28566 -90.00004 0.09835 0.01633
37.28556 -99.99884 0.14727 0.01673
37.27288 50.00816 0.08798 0.01519
37.27278 60.00940 0.14585 0.01701
37.27288 70.01063 0.16609 0.01801
37.28556 -109.99180 0.20478 0.02040
37.28566 -119.99060 0.17380 0.02029
37.28556 -129.98941 0.12368 0.01585
37.27288 19.99960 0.03318 0.01298
37.27278 30.00083 0.01716 0.01148
37.27288 40.00206 0.05833 0.01392
37.28556 -140.00037 0.09378 0.01531
37.28566 -149.99917 0.06338 0.01538
37.28556 -159.99797 0.04086 0.01231
37.27288 -9.99997 0.02403 0.01254
37.27278 0.00127 0.02027 0.01103
37.27288 10.00250 0.03718 0.01294
37.28556 -169.99993 0.03973 0.01349
37.28566 -179.99873 0.02657 0.01236
37.28556 170.00246 0.05628 0.01263
37.27288 -39.99953 0.05367 0.01360
37.27278 -29.99830 0.03506 0.01214
37.27288 -19.99707 0.04068 0.01287
37.28556 160.00050 0.03071 0.01304
37.28566 150.00170 0.03061 0.01301
37.28556 140.00290 0.05672 0.01289
37.27288 -70.00167 0.21707 0.02071
37.27278 -60.00044 0.13427 0.01605
37.27288 -49.99920 0.07058 0.01439
37.28556 129.99837 0.07404 0.01560
37.28566 119.99956 0.08657 0.01698
37.28556 110.00076 0.20008 0.01923
37.27288 -99.99995 0.11244 0.01678
37.27278 -89.99871 0.05967 0.01354
37.27288 -79.99748 0.15735 0.01736
37.28556 100.00009 0.20300 0.01981
37.28566 90.00129 0.06924 0.01529
37.28556 80.00248 0.11992 0.01605
