VULCAN
alpha beta intensity
Single peak fit using lmfit routine (P-V profile) at 2022-07-30 19:21:49.170374
5.55713 176.45997 1.40283 0.05944
0.00000 90.00000 3.20378 0.08045
5.55713 3.54003 1.10804 0.04856
89.31892 97.05324 0.14125 0.02832
90.00000 -90.00000 0.01885 0.02248
89.31892 82.94676 0.05303 0.02176
5.55713 -153.54175 1.41918 0.06210
0.00000 119.99828 2.77845 0.08228
5.55713 33.53831 1.40137 0.05712
89.31892 127.05152 0.44784 0.03954
90.00000 -60.00172 1.43470 0.06590
89.31892 112.94504 1.72873 0.06044
5.55713 -123.54090 1.86196 0.06916
0.00000 149.99913 2.72443 0.07882
5.55713 63.53916 2.21722 0.06916
89.31892 157.05237 0.97774 0.05574
90.00000 -30.00087 1.48884 0.06959
89.31892 142.94589 0.84675 0.04599
5.55713 -93.54134 2.46034 0.08017
0.00000 179.99869 2.78913 0.07591
5.55713 93.53873 2.50735 0.07160
89.31892 -172.94807 0.08315 0.02635
90.00000 -0.00131 0.01212 0.02073
89.31892 172.94546 0.05515 0.02158
5.55713 -63.54306 2.08716 0.07594
0.00000 -150.00303 2.65501 0.07455
5.55713 123.53700 1.80561 0.06404
89.31892 -142.94979 0.36513 0.03797
90.00000 29.99697 1.27458 0.06331
89.31892 -157.05627 1.54151 0.05818
5.55713 -33.54092 1.48519 0.06080
0.00000 -120.00089 2.79491 0.07774
5.55713 153.53914 1.29747 0.05282
89.31892 -112.94765 1.23965 0.06196
90.00000 59.99911 1.76157 0.07019
89.31892 -127.05413 0.90947 0.04724
5.55713 -3.54136 1.22625 0.05502
0.00000 -90.00133 3.10864 0.08019
5.55713 -176.46129 1.18131 0.05232
89.31892 -82.94809 0.17247 0.03096
90.00000 89.99867 0.04469 0.02442
89.31892 -97.05456 0.07119 0.02275
5.55713 26.45692 1.42951 0.06259
0.00000 -60.00305 2.84111 0.07757
5.55713 -146.46302 1.56728 0.05958
89.31892 -52.94981 0.52299 0.04377
90.00000 119.99695 1.63915 0.06880
89.31892 -67.05629 1.93208 0.06487
5.55713 56.45906 1.97128 0.07104
0.00000 -30.00091 2.81322 0.07660
5.55713 -116.46088 2.19978 0.07066
89.31892 -22.94767 1.09663 0.06233
90.00000 149.99909 1.72301 0.07214
89.31892 -37.05415 0.87511 0.04579
5.55713 86.45862 2.54587 0.07745
0.00000 -0.00135 3.00239 0.07669
5.55713 -86.46131 2.47723 0.07459
89.31892 7.05189 0.07447 0.02725
90.00000 179.99865 0.02666 0.02399
89.31892 -7.05458 0.04474 0.02115
5.55713 116.45690 2.31238 0.07412
0.00000 29.99693 2.64131 0.07540
5.55713 -56.46304 1.86369 0.06501
89.31892 37.05017 0.37354 0.03824
90.00000 -150.00307 1.28916 0.06254
89.31892 22.94369 1.50662 0.06140
5.55713 146.45904 1.55739 0.06186
0.00000 59.99907 2.88004 0.08135
5.55713 -26.46090 1.13855 0.05111
89.31892 67.05231 1.11205 0.05761
90.00000 -120.00093 1.60753 0.06804
89.31892 52.94583 0.94310 0.04816
6.60131 -177.30280 1.20152 0.05420
3.92476 -120.00093 2.55007 0.07388
6.60131 -62.69906 1.82974 0.06238
81.90616 67.08360 1.07862 0.05827
82.47848 59.99907 1.68845 0.06907
81.90616 52.91454 0.96951 0.04748
6.60131 152.69764 1.41942 0.06086
3.92476 -150.00050 2.18928 0.06904
6.60131 -92.69863 2.39503 0.07464
81.90616 37.08404 0.43005 0.03842
82.47848 29.99950 1.31870 0.06458
81.90616 22.91497 1.57466 0.06224
6.60131 122.69807 2.25091 0.07136
3.92476 179.99994 2.18387 0.06317
6.60131 -122.69819 2.20557 0.06972
81.90616 7.08447 0.11991 0.02967
82.47848 -0.00006 -0.02049 0.01854
81.90616 -7.08459 0.05521 0.02349
6.60131 92.69851 2.41117 0.07852
3.92476 150.00038 2.21661 0.06980
6.60131 -152.69776 1.47064 0.05553
81.90616 -22.91509 1.14075 0.06449
82.47848 -29.99962 1.86040 0.07847
81.90616 -37.08416 0.87303 0.04777
6.60131 62.69766 1.84166 0.06734
3.92476 119.99952 2.44570 0.07395
6.60131 177.30139 0.97357 0.04576
81.90616 -52.91594 0.55317 0.04525
82.47848 -60.00048 1.76535 0.07518
81.90616 -67.08501 2.00154 0.06556
6.60131 32.69809 1.39661 0.06051
3.92476 89.99996 3.08424 0.08278
6.60131 147.30183 1.11367 0.05041
81.90616 -82.91551 0.20119 0.03292
82.47848 -90.00004 0.00923 0.02182
81.90616 -97.08457 0.06243 0.02316
6.60131 2.69724 0.92531 0.04891
3.92476 59.99911 2.62698 0.07390
6.60131 117.30098 1.88017 0.06547
81.90616 -112.91636 1.21253 0.05847
82.47848 -120.00089 1.95544 0.07676
81.90616 -127.08542 0.95971 0.04874
6.60131 -27.30232 1.40061 0.05981
3.92476 29.99954 2.14707 0.06702
6.60131 87.30141 2.38923 0.07344
81.90616 -142.91592 0.42184 0.03908
82.47848 -150.00046 1.30552 0.06340
81.90616 -157.08499 1.72861 0.06561
6.60131 -57.30189 2.11942 0.07186
3.92476 -0.00002 2.03511 0.06404
6.60131 57.30185 2.17891 0.06714
81.90616 -172.91549 0.14950 0.03028
82.47848 179.99998 0.02393 0.02339
81.90616 172.91545 0.06222 0.02220
6.60131 -87.30145 2.24164 0.07772
3.92476 -29.99958 1.94773 0.06284
6.60131 27.30228 1.28096 0.05322
81.90616 157.08495 0.95387 0.05649
82.47848 150.00042 1.59991 0.07213
81.90616 142.91588 0.86318 0.04570
6.60131 -117.30230 1.99460 0.07111
3.92476 -60.00044 2.39834 0.07437
6.60131 -2.69857 0.82435 0.04315
81.90616 127.08410 0.50536 0.03963
82.47848 119.99956 1.46601 0.06602
81.90616 112.91503 1.77067 0.06100
6.60131 -147.30187 1.50916 0.06249
3.92476 -90.00000 2.93624 0.08101
6.60131 -32.69813 1.20886 0.05120
81.90616 97.08453 0.14627 0.02970
82.47848 90.00000 0.03951 0.02474
81.90616 82.91547 0.07055 0.02293
9.34588 -126.69781 1.75594 0.06694
7.86923 -90.00000 2.56984 0.07376
9.34588 -53.30219 1.30950 0.05453
75.04809 97.17037 0.14933 0.02890
75.52700 90.00000 0.02343 0.02203
75.04809 82.82963 0.04684 0.02214
9.34588 -96.69953 2.13085 0.07177
7.86923 -60.00172 1.79118 0.06112
9.34588 -23.30391 0.56295 0.03826
75.04809 127.16864 0.64510 0.04688
75.52700 119.99828 1.81011 0.07204
75.04809 112.82791 1.76572 0.06094
9.34588 -66.69868 1.85604 0.07051
7.86923 -30.00087 1.11406 0.04858
9.34588 6.69694 0.67638 0.04145
75.04809 157.16950 1.18847 0.05878
75.52700 149.99913 1.81075 0.07419
75.04809 142.82876 0.84058 0.04559
9.34588 -36.69912 1.05629 0.05313
7.86923 -0.00131 0.95359 0.04595
9.34588 36.69651 1.24820 0.05187
75.04809 -172.83094 0.16831 0.02842
75.52700 179.99869 0.02582 0.02137
75.04809 172.82833 0.06331 0.02136
9.34588 -6.70212 0.67175 0.04434
7.86923 29.99569 1.14713 0.04812
9.34588 66.69350 2.16781 0.06821
75.04809 -142.83395 0.43909 0.03971
75.52700 -150.00431 1.28865 0.06421
75.04809 -157.17468 1.59498 0.06068
9.34588 23.30130 0.72244 0.04389
7.86923 59.99911 2.14914 0.06678
9.34588 96.69692 2.20750 0.07261
75.04809 -112.83052 1.26585 0.06192
75.52700 -120.00089 2.16468 0.08098
75.04809 -127.17126 1.27504 0.05306
9.34588 53.29700 1.44365 0.06076
7.86923 89.99482 2.76226 0.07743
9.34588 126.69263 1.24300 0.05368
75.04809 -82.83482 0.22305 0.03344
75.52700 -90.00518 0.04143 0.02400
75.04809 -97.17555 0.06220 0.02356
9.34588 83.29914 2.17284 0.07420
7.86923 119.99695 1.95776 0.06403
9.34588 156.69477 0.61769 0.04003
75.04809 -52.83268 0.57904 0.04499
75.52700 -60.00305 1.95743 0.07518
75.04809 -67.17341 2.05102 0.06582
9.34588 113.30128 2.17055 0.07578
7.86923 149.99909 1.08462 0.04791
9.34588 -173.30310 0.69262 0.04102
75.04809 -22.83054 1.13909 0.06138
75.52700 -30.00091 1.81001 0.07492
75.04809 -37.17128 0.85431 0.04565
9.34588 143.30084 1.18460 0.05400
7.86923 179.99865 1.10637 0.04725
9.34588 -143.30353 1.28458 0.05451
75.04809 7.16902 0.09765 0.02688
75.52700 -0.00135 0.04562 0.02362
75.04809 -7.17171 0.01903 0.02012
9.34588 173.29912 0.68785 0.04486
7.86923 -150.00307 1.39202 0.05181
9.34588 -113.30525 2.02604 0.06823
75.04809 37.16730 0.45087 0.04135
75.52700 29.99693 1.46160 0.06380
75.04809 22.82657 1.62554 0.05905
9.34588 -156.69874 0.76743 0.04512
7.86923 -120.00093 2.29244 0.07026
9.34588 -83.30312 2.13358 0.07172
75.04809 67.16944 1.13922 0.05811
75.52700 59.99907 2.10199 0.07500
75.04809 52.82870 1.25387 0.05176
12.76303 -146.20908 0.65918 0.04547
11.84553 -120.00093 2.04069 0.06569
12.76303 -93.79278 2.00097 0.06825
68.66734 67.31318 1.24030 0.06041
69.06442 59.99907 2.39909 0.08396
68.66734 52.68496 1.55134 0.05701
12.76303 -176.20864 0.34402 0.03388
11.84553 -150.00050 0.71140 0.03882
12.76303 -123.79235 1.76472 0.06311
68.66734 37.31362 0.38008 0.03730
69.06442 29.99950 1.53840 0.06644
68.66734 22.68539 1.98369 0.06580
12.76303 153.79179 0.49950 0.03842
11.84553 179.99994 0.47667 0.03357
12.76303 -153.79191 0.58171 0.04000
68.66734 7.31405 0.19964 0.03046
69.06442 -0.00006 0.08747 0.02597
68.66734 -7.31417 0.13697 0.02502
12.76303 123.79223 1.29132 0.05640
11.84553 150.00038 0.58230 0.03543
12.76303 176.20852 0.40742 0.03368
68.66734 -22.68551 1.55436 0.06801
69.06442 -29.99962 1.97969 0.07502
68.66734 -37.31374 0.83413 0.04649
12.76303 93.79138 2.04281 0.07601
11.84553 119.99952 1.48561 0.05370
12.76303 146.20767 0.48193 0.03547
68.66734 -52.68636 0.90985 0.05500
69.06442 -60.00048 2.35085 0.08273
68.66734 -67.31459 2.03517 0.06757
12.76303 63.79824 1.66746 0.06494
11.84553 90.00639 2.21581 0.06833
12.76303 116.21454 1.38153 0.05357
68.66734 -82.67950 0.23785 0.03542
69.06442 -89.99361 0.04129 0.02379
68.66734 -97.30772 0.08185 0.02390
12.76303 33.79353 0.53457 0.03958
11.84553 60.00168 1.87872 0.06143
12.76303 86.20983 1.97517 0.06952
68.66734 -112.68421 1.26910 0.06014
69.06442 -119.99832 2.36502 0.07811
68.66734 -127.31243 1.65137 0.05883
12.76303 3.79397 0.29044 0.03373
11.84553 30.00212 0.68074 0.03891
12.76303 56.21026 1.64719 0.05913
68.66734 -142.68377 0.32255 0.03430
69.06442 -149.99788 1.52279 0.06432
68.66734 -157.31200 2.18808 0.06621
12.76303 -26.20560 0.51433 0.03897
11.84553 0.00255 0.36179 0.03179
12.76303 26.21070 0.60620 0.03779
68.66734 -172.68334 0.27575 0.03241
69.06442 -179.99745 0.04808 0.02350
68.66734 172.68844 0.13994 0.02443
12.76303 -56.20645 1.41820 0.06126
11.84553 -29.99830 0.58817 0.03711
12.76303 -3.79015 0.30168 0.03031
68.66734 157.31581 1.48803 0.06693
69.06442 150.00170 1.98096 0.07423
68.66734 142.68759 0.85706 0.04463
12.76303 -86.20730 1.90071 0.06912
11.84553 -59.99915 1.51775 0.05562
12.76303 -33.79100 0.45571 0.03430
68.66734 127.31496 0.75175 0.04942
69.06442 120.00085 2.36464 0.07862
68.66734 112.68674 1.96125 0.06365
12.76303 -116.20815 1.88170 0.06731
11.84553 -90.00000 2.09436 0.06476
12.76303 -63.79185 1.50483 0.05703
68.66734 97.31411 0.25999 0.03272
69.06442 90.00000 0.05107 0.02342
68.66734 82.68589 0.08997 0.02365
16.46989 -110.28705 1.85592 0.06830
15.86376 -90.00000 1.68211 0.05914
16.46989 -69.71295 1.80381 0.06479
62.70303 97.52128 0.48563 0.04192
63.02687 90.00000 0.21342 0.03245
62.70303 82.47872 0.34544 0.03382
16.46989 -80.28877 1.72871 0.06798
15.86376 -60.00172 1.33659 0.05219
16.46989 -39.71467 0.41802 0.03579
62.70303 127.51955 1.24880 0.06085
63.02687 119.99828 2.71512 0.08651
62.70303 112.47700 2.29191 0.06955
16.46989 -50.28792 0.90211 0.05039
15.86376 -30.00087 0.39461 0.03297
16.46989 -9.71382 0.25192 0.03121
62.70303 157.52041 2.60954 0.08118
63.02687 149.99913 2.35176 0.08296
62.70303 142.47785 0.68649 0.03916
16.46989 -20.29093 0.41456 0.03772
15.86376 -0.00388 0.25241 0.03016
16.46989 20.28318 0.35391 0.03296
62.70303 -172.48260 0.88733 0.05109
63.02687 179.99612 0.34181 0.03489
62.70303 172.47485 0.63127 0.03922
16.46989 9.70864 0.36343 0.03624
15.86376 29.99569 0.47169 0.03524
16.46989 50.28274 1.11343 0.05207
62.70303 -142.48304 0.37109 0.03726
63.02687 -150.00431 1.59974 0.06967
62.70303 -157.52559 2.65947 0.07090
16.46989 39.71077 0.49876 0.03895
15.86376 59.99782 1.62990 0.05874
16.46989 80.28488 1.74579 0.06072
62.70303 -112.48090 1.45122 0.06421
63.02687 -120.00218 2.61367 0.08524
62.70303 -127.52345 2.09886 0.06763
16.46989 69.70905 1.83665 0.06788
15.86376 89.99610 1.82011 0.06371
16.46989 110.28316 1.68231 0.06202
62.70303 -82.48262 0.40730 0.03903
63.02687 -90.00390 0.14321 0.02967
62.70303 -97.52517 0.21681 0.02824
16.46989 99.70990 1.78056 0.06678
15.86376 119.99695 1.16657 0.04909
16.46989 140.28401 0.34657 0.03223
62.70303 -52.48177 1.07509 0.05918
63.02687 -60.00305 2.64461 0.08628
62.70303 -67.52432 2.25375 0.06781
16.46989 129.71204 0.80760 0.04750
15.86376 149.99909 0.29132 0.03116
16.46989 170.28614 0.25738 0.03133
62.70303 -22.47963 2.15720 0.07769
63.02687 -30.00091 2.35337 0.07990
62.70303 -37.52219 0.72590 0.04266
16.46989 159.71160 0.31491 0.03303
15.86376 179.99865 0.31237 0.03123
16.46989 -159.71429 0.33902 0.03305
62.70303 7.51993 0.86289 0.05095
63.02687 -0.00135 0.24555 0.03364
62.70303 -7.52262 0.53886 0.03570
16.46989 -170.29012 0.26987 0.03228
15.86376 -150.00307 0.47456 0.03491
16.46989 -129.71601 1.40254 0.05450
62.70303 37.51821 0.30581 0.03436
63.02687 29.99693 1.60813 0.06390
62.70303 22.47566 2.68396 0.07581
16.46989 -140.28927 0.58081 0.04031
15.86376 -120.00222 1.91816 0.06731
16.46989 -99.71516 1.60544 0.06083
62.70303 67.51906 1.47761 0.06317
63.02687 59.99778 2.69262 0.08697
62.70303 52.47651 2.02078 0.06578
20.35407 -136.58209 0.45540 0.03881
19.94675 -120.00222 1.79409 0.06169
20.35407 -103.42234 1.46448 0.05782
57.08758 67.79872 1.95018 0.07082
57.34405 59.99778 3.54206 0.09876
57.08758 52.19684 2.84455 0.07771
20.35407 -166.58166 0.25884 0.03354
19.94675 -150.00178 0.38816 0.03496
20.35407 -133.42191 0.96381 0.04735
57.08758 37.79916 0.60015 0.04390
57.34405 29.99822 1.55273 0.06800
57.08758 22.19728 4.09009 0.08494
20.35407 163.42007 0.28347 0.03418
19.94675 179.99994 0.25374 0.03308
20.35407 -163.42019 0.25013 0.03267
57.08758 7.80088 2.77702 0.08728
57.34405 -0.00006 1.45624 0.06348
57.08758 -7.80100 2.36285 0.07062
20.35407 133.42050 0.52537 0.03922
19.94675 150.00038 0.25282 0.02876
20.35407 166.58025 0.18531 0.03098
57.08758 -22.19869 3.87651 0.10153
57.34405 -29.99962 2.41243 0.08286
57.08758 -37.80056 0.66791 0.04087
20.35407 103.41965 1.62649 0.06507
19.94675 119.99952 1.04015 0.04845
20.35407 136.57940 0.29420 0.03277
57.08758 -52.19954 1.87006 0.07227
57.34405 -60.00048 3.74161 0.10431
57.08758 -67.80141 2.76050 0.07624
20.35407 73.42137 1.84573 0.07001
19.94675 90.00125 1.29303 0.05157
20.35407 106.58112 1.77249 0.06152
57.08758 -82.19782 0.90848 0.05145
57.34405 -89.99875 0.35413 0.03771
57.08758 -97.79969 0.61040 0.04038
20.35407 43.42181 0.42982 0.03703
19.94675 60.00168 1.49388 0.05617
20.35407 76.58156 1.58322 0.06055
57.08758 -112.19738 1.67053 0.06757
57.34405 -119.99832 3.28974 0.09328
57.08758 -127.79926 2.92631 0.07805
20.35407 13.42096 0.22800 0.03248
19.94675 30.00083 0.27680 0.03069
20.35407 46.58071 0.70118 0.04160
57.08758 -142.19823 0.55331 0.04309
57.34405 -149.99917 1.34773 0.06414
57.08758 -157.80011 3.67029 0.08236
20.35407 -16.57861 0.28117 0.03465
19.94675 0.00127 0.18262 0.02993
20.35407 16.58114 0.29094 0.03391
57.08758 -172.19780 3.21314 0.09178
57.34405 -179.99873 1.83400 0.07083
57.08758 172.20033 2.62363 0.07082
20.35407 -46.57817 0.58826 0.04346
19.94675 -29.99830 0.26927 0.03184
20.35407 -13.41842 0.24115 0.03304
57.08758 157.80264 4.45222 0.10606
57.34405 150.00170 2.53797 0.07972
57.08758 142.20076 0.79039 0.04110
20.35407 -76.57902 1.87867 0.06742
19.94675 -59.99915 1.25628 0.05163
20.35407 -43.41927 0.38411 0.03523
57.08758 127.80179 2.12515 0.07549
57.34405 120.00085 4.02155 0.10075
57.08758 112.19991 2.85420 0.07650
20.35407 -106.57987 1.80331 0.06592
19.94675 -90.00000 1.32165 0.05436
20.35407 -73.42013 1.99300 0.06473
57.08758 97.80094 1.19880 0.06156
57.34405 90.00000 0.56459 0.04603
57.08758 82.19906 0.81704 0.04379
24.37601 -104.08165 1.73580 0.06665
24.10869 -90.00000 1.09295 0.04881
24.37601 -75.91835 2.16138 0.07033
51.77717 98.16569 1.93469 0.07336
51.96990 90.00000 1.19822 0.06114
51.77717 81.83431 1.71082 0.06015
24.37601 -74.08466 1.99624 0.06874
24.10869 -60.00301 1.21770 0.05279
24.37601 -45.92135 0.42559 0.03724
51.77717 128.16269 2.89734 0.08629
51.96990 119.99699 4.83609 0.11888
51.77717 111.83130 3.53407 0.08514
24.37601 -44.08252 0.46435 0.03989
24.10869 -30.00087 0.32782 0.03383
24.37601 -15.91922 0.21825 0.03195
51.77717 158.16482 5.01644 0.12273
51.96990 149.99913 2.32840 0.08291
51.77717 141.83344 1.29519 0.05348
24.37601 -14.08553 0.31504 0.03768
24.10869 -0.00388 0.17272 0.02910
24.37601 14.07778 0.25242 0.03191
51.77717 -171.83818 5.69587 0.12112
51.96990 179.99612 4.60297 0.10707
51.77717 171.83043 5.38757 0.10152
24.37601 15.91403 0.22186 0.03172
24.10869 29.99569 0.35587 0.03526
24.37601 44.07734 0.54941 0.03952
51.77717 -141.83862 1.35524 0.06113
51.96990 -150.00431 1.44819 0.06555
51.77717 -158.17000 4.03253 0.09131
24.37601 45.91617 0.49766 0.04042
24.10869 59.99782 1.52791 0.05850
24.37601 74.07948 1.78432 0.05882
51.77717 -111.83648 2.43129 0.07913
51.96990 -120.00218 3.99575 0.09996
51.77717 -128.16787 3.78893 0.08727
24.37601 75.91445 1.86244 0.06875
24.10869 89.99610 1.11046 0.05097
24.37601 104.07776 1.96694 0.06650
51.77717 -81.83820 1.61861 0.06635
51.96990 -90.00390 0.96414 0.05615
51.77717 -98.16959 1.36643 0.05374
24.37601 105.91530 1.74554 0.06794
24.10869 119.99695 0.95462 0.04622
24.37601 134.07861 0.37736 0.03515
51.77717 -51.83735 2.89045 0.08707
51.96990 -60.00305 4.83796 0.11392
51.77717 -68.16874 3.40148 0.08218
24.37601 135.91744 0.39021 0.03705
24.10869 149.99909 0.31165 0.03437
24.37601 164.08074 0.18452 0.03086
51.77717 -21.83522 5.01703 0.11524
51.96990 -30.00091 2.23058 0.07983
51.77717 -38.16660 1.00239 0.04758
24.37601 165.91700 0.23855 0.03349
24.10869 179.99865 0.22635 0.03199
24.37601 -165.91969 0.31980 0.03573
51.77717 8.16435 5.45622 0.11453
51.96990 -0.00135 4.37323 0.10830
51.77717 -8.16704 5.24436 0.10137
24.37601 -164.08472 0.31574 0.03619
24.10869 -150.00307 0.33621 0.03500
24.37601 -135.92141 0.73335 0.04516
51.77717 38.16263 1.33661 0.06079
51.96990 29.99693 1.65133 0.06786
51.77717 21.83124 4.52240 0.09320
24.37601 -134.08258 0.56506 0.04369
24.10869 -120.00093 2.02238 0.06799
24.37601 -105.91928 1.61290 0.05604
51.77717 68.16476 2.54835 0.08395
51.96990 59.99907 4.20978 0.10591
51.77717 51.83338 3.90056 0.08847
28.52653 -132.30824 0.90757 0.05421
28.36567 -120.00093 2.27828 0.07339
28.52653 -107.69362 2.19336 0.06758
46.73358 68.63253 3.32602 0.09264
46.86401 59.99907 4.71405 0.11335
46.73358 51.36561 4.19715 0.09506
28.52653 -162.30781 0.34389 0.03569
28.36567 -150.00050 0.34072 0.03553
28.52653 -137.69318 0.84899 0.04827
46.73358 38.63297 2.06996 0.07651
46.86401 29.99950 1.50822 0.06610
46.73358 21.36604 3.26355 0.08046
28.52653 167.69263 0.21717 0.03157
28.36567 179.99994 0.18002 0.02938
28.52653 -167.69275 0.30031 0.03272
46.73358 8.63340 5.11445 0.11701
46.86401 -0.00006 5.09755 0.11857
46.73358 -8.63352 5.48020 0.10569
28.52653 137.69306 0.42376 0.03858
28.36567 150.00038 0.28824 0.03307
28.52653 162.30769 0.26045 0.03239
46.73358 -21.36616 4.04257 0.10854
46.86401 -29.99962 1.84982 0.07220
46.73358 -38.63309 1.88192 0.06389
28.52653 107.69221 2.11785 0.07358
28.36567 119.99952 1.01694 0.04990
28.52653 132.30684 0.42969 0.03711
46.73358 -51.36701 3.93583 0.10157
46.86401 -60.00048 5.30624 0.12092
46.73358 -68.63394 4.44982 0.09781
28.52653 77.69908 1.82773 0.06982
28.36567 90.00639 0.89724 0.04283
28.52653 102.31370 2.13995 0.07282
46.73358 -81.36015 2.63181 0.08676
46.86401 -89.99361 1.65325 0.07122
46.73358 -98.62707 2.22333 0.06842
28.52653 47.69180 0.61536 0.04489
28.36567 59.99911 1.76367 0.06358
28.52653 72.30642 2.12219 0.07109
46.73358 -111.36743 3.04233 0.08848
46.86401 -120.00089 4.80467 0.12334
46.73358 -128.63435 4.59219 0.09408
28.52653 17.69223 0.27013 0.03359
28.36567 29.99954 0.35509 0.03457
28.52653 42.30686 0.54152 0.04137
46.73358 -141.36699 2.30049 0.07433
46.86401 -150.00046 1.44415 0.06625
46.73358 -158.63392 3.03180 0.08118
28.52653 -12.30347 0.31068 0.03401
28.36567 0.00384 0.15102 0.02702
28.52653 12.31115 0.31339 0.03351
46.73358 -171.36270 4.86824 0.11484
46.86401 -179.99616 5.30029 0.12482
46.73358 171.37037 5.17257 0.10164
28.52653 -42.30561 0.50904 0.04218
28.36567 -29.99830 0.33961 0.03357
28.52653 -17.69099 0.35783 0.03463
46.73358 158.63516 3.86601 0.10041
46.86401 150.00170 1.80453 0.07077
46.73358 141.36824 1.89553 0.06459
28.52653 -72.30518 2.53011 0.07739
28.36567 -59.99786 1.47764 0.05849
28.52653 -47.69055 0.55901 0.03979
46.73358 128.63560 3.41434 0.09592
46.86401 120.00214 4.93921 0.12032
46.73358 111.36867 4.27346 0.09391
28.52653 -102.29960 1.80109 0.06857
28.36567 -89.99229 1.06576 0.04812
28.52653 -77.68497 2.55408 0.07688
46.73358 98.64118 2.55867 0.08283
46.86401 90.00771 1.75653 0.07083
46.73358 81.37425 2.38435 0.07016
32.82102 -100.98828 1.96172 0.07147
32.74665 -89.99229 1.25983 0.05347
32.82102 -78.99629 3.11679 0.08217
41.91203 99.23929 3.01172 0.08595
41.97916 90.00771 1.38254 0.06495
41.91203 80.77613 2.65817 0.07310
32.82102 -70.99900 3.31554 0.09253
32.74665 -60.00301 1.98535 0.06650
32.82102 -49.00702 1.01508 0.05097
41.91203 129.22857 2.87121 0.09003
41.97916 119.99699 3.87449 0.10864
41.91203 110.76541 4.36053 0.09352
32.82102 -40.99943 0.71499 0.04538
32.74665 -30.00344 0.50897 0.03735
32.82102 -19.00745 0.48017 0.03659
41.91203 159.22814 1.61969 0.06800
41.97916 149.99656 1.10173 0.05780
41.91203 140.76498 1.72196 0.06287
32.82102 -10.99730 0.37950 0.03554
32.74665 -0.00131 0.25925 0.02863
32.82102 10.99469 0.38413 0.03381
41.91203 -170.76973 2.13905 0.07820
41.97916 179.99869 2.47652 0.08273
41.91203 170.76711 2.25517 0.06769
32.82102 18.99841 0.43657 0.03818
32.74665 29.99440 0.55616 0.03817
32.82102 40.99039 0.90296 0.04630
41.91203 -140.77402 2.25479 0.07706
41.97916 -150.00560 1.39178 0.06749
41.91203 -159.23718 1.48436 0.05897
32.82102 49.00183 1.08994 0.05783
32.74665 59.99782 2.38141 0.07456
32.82102 70.99381 2.86293 0.07826
41.91203 -110.77060 3.74047 0.10547
41.97916 -120.00218 4.60245 0.11814
41.91203 -129.23376 3.91508 0.09009
32.82102 79.00140 1.92122 0.06999
32.74665 89.99739 0.92553 0.04479
32.82102 100.99338 2.67381 0.07658
41.91203 -80.77103 3.44769 0.09932
41.97916 -90.00261 1.77128 0.07090
41.91203 -99.23419 2.62496 0.07242
32.82102 109.00096 2.55536 0.08267
32.74665 119.99695 1.47711 0.05844
32.82102 130.99294 0.65052 0.04329
41.91203 -50.77147 3.61399 0.10249
41.97916 -60.00305 5.12576 0.12234
41.91203 -69.23463 4.82559 0.09955
32.82102 139.00181 0.53032 0.04032
32.74665 149.99780 0.43442 0.03533
32.82102 160.99379 0.32938 0.03313
41.91203 -20.77062 1.90935 0.07405
41.97916 -30.00220 1.38718 0.06423
41.91203 -39.23378 2.16211 0.06730
32.82102 169.00266 0.24922 0.03112
32.74665 179.99865 0.24854 0.02661
32.82102 -169.00535 0.39334 0.03453
41.91203 9.23023 2.19134 0.07640
41.97916 -0.00135 2.52033 0.08396
41.91203 -9.23293 2.37422 0.07292
32.82102 -160.99906 0.45855 0.03979
32.74665 -150.00307 0.61226 0.04101
32.82102 -139.00708 1.09476 0.05494
41.91203 39.22851 2.14702 0.07843
41.97916 29.99693 1.24752 0.06270
41.91203 20.76535 1.54732 0.05647
32.82102 -130.99821 1.41442 0.06341
32.74665 -120.00222 3.01794 0.08353
32.82102 -109.00623 3.00621 0.08491
41.91203 69.22936 3.80657 0.10021
41.97916 59.99778 4.05596 0.10522
41.91203 50.76620 3.30254 0.08214
37.27288 -130.00345 2.23555 0.07684
37.27278 -120.00222 3.94941 0.09595
37.27288 -110.00098 4.06538 0.08907
37.28556 69.99659 3.68890 0.10052
37.28566 59.99778 3.20350 0.09834
37.28556 49.99898 2.05377 0.06877
37.27288 -160.00173 0.68258 0.04428
37.27278 -150.00050 0.89611 0.04494
37.27288 -139.99926 1.68818 0.06219
37.28556 39.99831 1.41773 0.06598
37.28566 29.99950 0.80392 0.05207
37.28556 20.00070 0.78777 0.04396
37.27288 169.99871 0.54176 0.03835
37.27278 179.99994 0.62498 0.03794
37.27288 -169.99883 0.59367 0.03840
37.28556 9.99874 0.76794 0.05158
37.28566 -0.00006 0.85165 0.04939
37.28556 -9.99886 0.82620 0.04429
37.27288 139.99914 0.91745 0.04997
37.27278 150.00038 0.63741 0.03902
37.27288 160.00161 0.55727 0.03821
37.28556 -20.00082 0.83104 0.05296
37.28566 -29.99962 0.95549 0.05385
37.28556 -39.99843 1.69102 0.06068
37.27288 109.99958 3.21181 0.09305
37.27278 120.00081 2.08982 0.06670
37.27288 130.00204 1.29021 0.05514
37.28556 -50.00039 2.58642 0.08427
37.28566 -59.99919 4.04590 0.10549
37.28556 -69.99799 4.87741 0.10576
37.27288 79.99873 2.13509 0.07414
37.27278 89.99996 1.10744 0.04888
37.27288 100.00119 3.09135 0.08198
37.28556 -80.00124 3.53986 0.09536
37.28566 -90.00004 1.52793 0.06789
37.28556 -99.99884 2.80587 0.07751
37.27288 50.00816 1.71831 0.06586
37.27278 60.00940 3.13200 0.08260
37.27288 70.01063 3.48595 0.08784
37.28556 -109.99180 3.85685 0.10485
37.28566 -119.99060 4.11786 0.11236
37.28556 -129.98941 2.41709 0.07299
37.27288 19.99960 0.63876 0.04458
37.27278 30.00083 0.84510 0.04516
37.27288 40.00206 1.32520 0.05516
37.28556 -140.00037 1.76308 0.06793
37.28566 -149.99917 0.91206 0.05621
37.28556 -159.99797 0.69611 0.04136
37.27288 -9.99997 0.60641 0.04312
37.27278 0.00127 0.58898 0.03636
37.27288 10.00250 0.60193 0.03978
37.28556 -169.99993 0.76080 0.05014
37.28566 -179.99873 0.73877 0.04687
37.28556 170.00246 0.65167 0.03965
37.27288 -39.99953 1.34993 0.05902
37.27278 -29.99830 0.83382 0.04352
37.27288 -19.99707 0.71913 0.04315
37.28556 160.00050 0.67974 0.04802
37.28566 150.00170 0.71132 0.04962
37.28556 140.00290 1.22948 0.05273
37.27288 -70.00167 4.14574 0.10572
37.27278 -60.00044 3.12900 0.07929
37.27288 -49.99920 1.85734 0.06647
37.28556 129.99837 1.74309 0.07251
37.28566 119.99956 2.87371 0.09767
37.28556 110.00076 4.24083 0.10001
37.27288 -99.99995 2.29874 0.07819
37.27278 -89.99871 1.43535 0.05596
37.27288 -79.99748 3.50925 0.08638
37.28556 100.00009 2.94482 0.08913
37.28566 90.00129 1.13072 0.06027
37.28556 80.00248 2.71869 0.07820
